* Measurement data measured by REW V5.30.2
* Source: EXCL: Microphone (Umik-1  Gain: 18dB), MICROPHONE (Master Volume), L, volume: 0.540
* Format: 256k Log Swept Sine, 1 sweep at -20.0 dBFS with no timing reference
* Dated: Jan 29, 2024 4:07:14 PM
* REW Settings:
*  C-weighting compensation: Off
*  Target level: 75.0 dB
* Note: sweep taken 0.5m from microphone, fan was run in oven for roughly a week at ~90degC; 
* Measurement: Good Fan 1 -- Post-Oven
* Smoothing: 1/48 octave
* Frequency Step: 96 ppo
* Start Frequency: 20.0 Hz
*
* Freq(Hz) SPL(dB) Phase(degrees)
20.141602 45.739 -144.1917
20.287556 45.257 -146.2376
20.434568 45.015 -124.6968
20.582645 46.359 -96.4553
20.731796 49.457 -81.1035
20.882027 52.357 -77.8196
21.033346 54.403 -79.7988
21.185762 55.857 -83.1829
21.339283 56.767 -87.5926
21.493916 57.138 -93.4699
21.649670 57.028 -99.5131
21.806553 56.438 -107.4717
21.964573 55.417 -117.2945
22.123737 53.924 -130.4190
22.284056 52.355 -152.0156
22.445536 51.535 176.7303
22.608185 51.538 138.7548
22.772013 52.085 113.6660
22.937029 52.990 96.6089
23.103241 53.599 85.5168
23.270657 53.636 76.6723
23.439285 53.067 69.2390
23.609137 51.827 63.2183
23.780218 49.875 57.3976
23.952539 46.944 53.9830
24.126110 44.010 58.1631
24.300938 43.666 -167.7362
24.477032 45.458 -158.8499
24.654402 47.154 -163.0112
24.833057 48.481 -170.3322
25.013008 49.161 -178.5116
25.194263 49.281 170.6017
25.376831 49.172 158.7308
25.560722 48.946 144.3477
25.745945 48.831 130.5571
25.932510 48.848 117.4236
26.120428 48.935 107.5444
26.309708 49.031 100.3092
26.500359 49.003 95.5962
26.692390 48.789 92.6175
26.885815 48.281 89.8839
27.080641 47.390 86.6883
27.276878 45.931 79.9609
27.474539 44.712 64.0762
27.673630 44.883 10.8986
27.874165 46.700 -44.6473
28.076153 49.662 -64.1672
28.279604 52.292 -73.7067
28.484529 54.212 -80.7279
28.690941 55.542 -86.7272
28.898848 56.323 -92.6309
29.108261 56.618 -98.5096
29.319191 56.439 -104.6284
29.531651 55.798 -111.2516
29.745649 54.683 -118.2161
29.961199 53.083 -126.2324
30.178310 50.969 -134.9779
30.396996 48.321 -145.7592
30.617264 45.104 -158.2399
30.839128 41.398 -174.4811
31.062601 37.554 173.2372
31.287693 36.139 -174.0211
31.514416 38.263 -151.4250
31.742783 42.160 -155.4711
31.972803 45.858 -166.7527
32.204491 48.965 -178.0938
32.437859 51.606 170.3597
32.672916 53.830 159.6232
32.909679 55.663 149.3199
33.148155 57.103 139.4117
33.388359 58.127 129.9302
33.630306 58.710 120.1082
33.874004 58.808 110.1694
34.119469 58.378 99.4655
34.366711 57.382 86.6251
34.615746 55.811 70.7523
34.866585 53.892 47.3760
35.119244 51.980 9.4401
35.373734 50.696 -32.3167
35.630066 49.658 -60.3660
35.888256 48.547 -77.7177
36.148315 47.870 -74.7480
36.410259 49.539 60.6804
36.674103 52.448 58.9196
36.939857 54.672 52.2685
37.207539 55.769 46.5847
37.477161 55.757 43.0092
37.748737 54.747 43.2778
38.022282 53.087 55.4175
38.297806 52.480 91.2923
38.575329 53.427 122.5066
38.854862 55.022 132.0280
39.136421 55.855 132.1160
39.420021 55.712 129.4174
39.705673 54.582 126.0895
39.993397 52.460 123.3152
40.283207 49.364 123.7642
40.575115 45.449 135.4886
40.869141 41.714 -152.2061
41.165295 39.588 -82.2706
41.463596 39.794 -53.4949
41.764057 41.271 -32.9818
42.066696 42.545 -23.7639
42.371529 42.813 -21.1371
42.678570 41.845 -19.1830
42.987835 39.973 -9.2695
43.299343 38.637 41.1435
43.613110 39.327 87.7039
43.929150 40.554 96.6292
44.247478 40.805 100.8507
44.568115 40.238 111.4819
44.891075 39.929 135.7522
45.216373 40.556 162.8127
45.544029 41.556 177.4970
45.874062 41.987 -175.0704
46.206486 41.577 -167.8684
46.541317 40.558 -155.7936
46.878574 39.435 -136.9031
47.218277 38.570 -116.9483
47.560440 37.726 -102.6888
47.905083 36.592 -95.8751
48.252224 35.590 -101.7280
48.601879 36.277 -136.2082
48.954067 38.734 -176.3376
49.308807 41.306 166.7985
49.666119 42.956 158.8953
50.026020 43.378 154.6913
50.388531 42.509 154.6981
50.753666 40.637 165.9496
51.121449 39.134 -143.6056
51.491894 39.151 -94.9004
51.865025 39.660 -78.6964
52.240860 39.478 -68.7628
52.619419 38.476 -61.4700
53.000721 36.839 -62.4589
53.384785 35.509 -102.4315
53.771633 35.849 170.5080
54.161285 36.774 148.7281
54.553761 37.444 130.0728
54.949081 39.029 -41.0754
55.347263 41.160 -61.1634
55.748333 42.598 -84.0378
56.152309 43.801 -146.4012
56.559212 45.561 146.7828
56.969063 47.433 132.0493
57.381886 49.486 146.1498
57.797699 52.460 -170.6205
58.216526 55.545 -153.9185
58.638386 57.660 -154.4807
59.063305 58.436 -159.9496
59.491302 57.815 -166.3371
59.922401 55.812 -170.4084
60.356625 52.639 -162.7849
60.793995 49.210 -111.4365
61.234531 46.825 -77.5309
61.678261 45.193 -70.5577
62.125206 43.991 -57.3973
62.575390 44.217 -40.7961
63.028835 45.171 -41.8029
63.485569 45.470 -57.9257
63.945610 45.032 -92.6779
64.408989 44.793 -142.5757
64.875725 45.667 -159.4193
65.345840 47.976 -134.4425
65.819366 50.896 -107.7351
66.296318 53.041 -101.6737
66.776726 53.743 -102.8748
67.260620 52.832 -105.7150
67.748016 50.401 -106.9686
68.238945 47.179 -83.7385
68.733429 45.006 75.8776
69.231499 45.488 140.3737
69.733177 47.553 -176.0960
70.238495 48.970 -165.7804
70.747475 48.839 -159.3589
71.260139 47.209 -146.3594
71.776520 44.740 -106.2915
72.296638 42.517 -56.4996
72.820526 41.132 -41.6249
73.348213 41.339 142.4596
73.879723 42.470 138.6396
74.415085 42.448 132.1943
74.954330 40.771 121.3777
75.497482 38.506 46.6658
76.044571 37.713 -56.0059
76.595619 39.196 108.6887
77.150665 41.054 98.1424
77.709732 41.514 87.0306
78.272850 40.253 70.8907
78.840050 37.872 22.7366
79.411354 35.609 -48.9250
79.986801 34.329 -49.5787
80.566422 34.136 -31.8598
81.150238 34.268 -33.1780
81.738289 33.930 -63.9029
82.330597 33.136 -109.6172
82.927200 31.833 -126.7834
83.528122 30.739 -106.1976
84.133400 31.777 -46.2584
84.743065 34.473 -13.2969
85.357147 36.876 -11.4310
85.975677 37.929 -23.6616
86.598694 37.671 -38.7954
87.226227 37.290 90.3828
87.858307 37.608 81.3701
88.494965 37.974 17.8042
89.136238 38.205 -51.0264
89.782158 38.125 -59.7969
90.432755 38.302 -13.6447
91.088066 39.279 35.3324
91.748131 40.147 61.7573
92.412979 40.339 79.8120
93.082642 39.563 90.6840
93.757156 38.893 120.1930
94.436562 40.376 139.0614
95.120888 42.657 113.4068
95.810173 44.341 84.5269
96.504456 45.816 7.7327
97.203766 47.481 -107.2756
97.908142 48.436 -134.3375
98.617622 47.892 -155.7942
99.332245 45.827 -169.2788
100.052048 43.012 -166.9118
100.777069 41.521 -49.5656
101.507339 42.250 11.9471
102.242905 42.662 17.6418
102.983795 41.705 40.9252
103.730057 40.257 106.4544
104.481728 39.159 179.1721
105.238846 38.322 -140.2646
106.001450 37.289 -121.9393
106.769577 37.542 -148.9305
107.543274 39.588 164.6143
108.322578 41.578 159.4871
109.107529 43.414 162.4496
109.898170 46.008 150.4565
110.694534 49.407 79.7426
111.496674 52.695 39.5696
112.304626 54.957 28.8134
113.118431 55.756 20.5438
113.938133 55.081 5.1130
114.763779 53.852 -27.1021
115.595406 53.839 -48.4273
116.433060 54.622 -47.8699
117.276779 55.093 -25.8459
118.126617 55.893 19.1509
118.982613 56.817 28.6160
119.844810 57.264 28.3752
120.713257 57.173 28.4604
121.587997 56.189 31.4784
122.469070 54.338 55.0082
123.356529 52.453 97.3530
124.250420 50.727 119.7786
125.150787 48.831 155.7986
126.057678 47.504 -106.5966
126.971146 47.235 -59.7511
127.891228 47.649 2.9882
128.817978 48.446 59.2887
129.751450 49.070 99.0003
130.691681 49.143 128.6691
131.638733 48.571 144.2024
132.592636 48.075 126.0132
133.553452 48.126 52.7112
134.521240 48.176 57.9654
135.496033 48.215 142.6948
136.477890 48.413 -108.4028
137.466858 48.780 108.4116
138.462997 48.884 100.2228
139.466354 48.242 107.0451
140.476990 47.581 97.8111
141.494949 47.930 15.2866
142.520279 48.967 31.0146
143.553040 49.849 24.6440
144.593277 49.992 -39.7233
145.641052 49.548 -36.3402
146.696426 48.779 -6.5685
147.759445 47.366 -13.0172
148.830170 45.633 155.7315
149.908661 44.679 124.6790
150.994965 44.844 67.7034
152.089142 45.519 52.5688
153.191238 46.895 88.2630
154.301331 48.736 130.1882
155.419464 50.150 162.0467
156.545700 50.084 168.8771
157.680099 48.451 -154.7230
158.822708 46.082 -129.4507
159.973602 43.905 112.6430
161.132843 42.330 91.0137
162.300476 40.983 64.8338
163.476578 40.296 27.4182
164.661194 40.967 -74.1295
165.854401 42.206 -108.3745
167.056244 43.552 -104.6630
168.266800 44.773 -99.3969
169.486130 44.856 -115.6337
170.714294 44.003 -149.8511
171.951355 43.407 -155.0571
173.197388 43.681 -104.8378
174.452454 44.935 -49.8523
175.716614 46.933 -29.4730
176.989929 49.194 -31.0932
178.272476 51.129 -48.4076
179.564316 52.129 -76.7862
180.865509 52.213 -108.8850
182.176132 51.866 -135.8347
183.496262 51.006 -157.3563
184.825958 49.793 -173.5278
186.165283 48.716 178.3375
187.514313 47.726 160.5047
188.873123 47.491 128.2237
190.241776 47.610 120.5719
191.620346 47.040 111.4435
193.008911 47.291 -56.2361
194.407532 48.883 -120.9922
195.816284 49.739 -154.1916
197.235245 48.930 -178.8755
198.664490 46.610 160.9916
200.104095 43.449 175.9432
201.554138 40.603 -164.3337
203.014679 38.962 -155.5271
204.485809 38.787 -144.7869
205.967590 40.282 -121.9409
207.460114 43.044 -86.4147
208.963455 45.945 -84.3969
210.477692 47.774 -110.3623
212.002899 48.107 -123.2336
213.539154 47.305 -116.3783
215.086548 46.254 -113.9741
216.645157 45.989 154.3010
218.215057 47.526 149.6017
219.796341 49.382 146.6241
221.389069 49.683 127.0563
222.993347 48.236 120.8629
224.609253 46.241 166.1955
226.236862 44.966 -118.7089
227.876266 44.445 -101.6752
229.527557 44.866 -105.8923
231.190811 45.735 -72.1822
232.866119 46.068 23.0222
234.553558 45.431 10.4631
236.253235 44.036 -12.0192
237.965225 42.580 16.5729
239.689621 41.644 26.6702
241.426514 41.869 3.1444
243.175995 42.871 26.6578
244.938141 43.424 59.1181
246.713058 43.555 141.6921
248.500839 44.250 143.7097
250.301575 46.027 30.3871
252.115356 47.959 42.5904
253.942291 49.139 77.6512
255.782455 49.383 90.7966
257.635956 49.123 86.7176
259.502899 49.087 106.9590
261.383362 48.943 150.9052
263.277466 48.202 166.1087
265.185272 48.011 -177.9702
267.106903 48.897 155.8828
269.042480 50.022 95.1743
270.992065 51.718 62.6628
272.955780 53.692 63.6001
274.933716 54.908 68.0993
276.925995 54.912 47.9165
278.932709 53.661 0.6179
280.953979 51.625 -91.1064
282.989899 49.723 -132.6996
285.040558 49.592 -179.1514
287.106079 51.890 178.0789
289.186554 54.084 -170.6536
291.282104 54.880 -152.4195
293.392853 54.114 -150.0217
295.518890 52.700 -112.4725
297.660339 52.965 -112.1362
299.817322 55.009 -115.3739
301.989929 57.050 -97.1316
304.178284 58.251 -89.9923
306.382477 58.363 -93.3419
308.602661 57.426 -95.1700
310.838928 56.068 -109.3274
313.091400 55.157 -141.2292
315.360199 54.538 -127.5479
317.645416 54.177 -99.5184
319.947205 53.964 -81.6947
322.265686 53.903 -72.9459
324.600952 54.104 -67.0777
326.953156 53.844 -55.0806
329.322388 53.307 -69.1913
331.708801 53.471 -77.5278
334.112488 54.630 -15.4531
336.533600 56.171 -0.6417
338.972260 57.505 1.2573
341.428589 58.751 -2.7595
343.902710 59.580 -12.8600
346.394775 59.754 -31.8298
348.904907 59.331 -25.5457
351.433228 58.134 -17.0646
353.979858 56.016 -12.7206
356.544952 53.885 15.7081
359.128632 53.132 26.5100
361.731018 53.431 33.2640
364.352264 53.509 37.2757
366.992523 53.432 75.3188
369.651917 53.947 84.7671
372.330566 54.489 51.3213
375.028625 54.602 22.7388
377.746246 54.318 29.4466
380.483551 53.462 32.6302
383.240692 51.443 -0.4277
386.017822 49.187 -139.9562
388.815063 48.924 -131.8069
391.632568 50.003 -114.7234
394.470490 50.691 -108.3229
397.328979 50.937 -144.3457
400.208191 51.766 97.8989
403.108276 52.980 54.4703
406.029358 53.565 48.6458
408.971619 53.641 54.3029
411.935181 53.361 48.4216
414.920227 53.104 30.8625
417.926910 53.566 25.5799
420.955383 54.454 21.8488
424.005798 54.874 33.4732
427.078308 54.624 54.2958
430.173096 54.372 44.2191
433.290314 54.573 150.2202
436.430115 55.069 127.1903
439.592682 56.056 143.3587
442.778137 56.967 152.6597
445.986694 56.764 133.7433
449.218506 55.401 114.2421
452.473724 53.783 130.7977
455.752533 52.805 132.3755
459.055115 52.611 -54.3250
462.381622 52.940 -88.6338
465.732239 53.352 -105.6473
469.107117 53.887 -111.5154
472.506470 54.349 -116.3043
475.930450 54.351 -118.7851
479.379242 54.145 -104.3681
482.853027 53.842 -90.1311
486.351990 53.119 -79.4077
489.876282 52.247 -68.0290
493.426117 52.193 -29.6063
497.001678 53.038 5.4154
500.603149 53.597 4.1797
504.230713 53.860 11.7288
507.884583 54.093 16.9689
511.564911 54.293 1.2059
515.271912 55.025 -15.5350
519.005798 56.569 -6.0951
522.766724 58.392 151.0580
526.554932 59.738 161.7651
530.370544 59.924 -174.3593
534.213806 58.858 -167.5768
538.084961 57.412 -173.3628
541.984131 57.095 177.5851
545.911560 57.658 179.6275
549.867432 57.431 -162.2179
553.851990 56.491 -136.5629
557.865417 56.076 -108.8086
561.907959 56.174 -83.6993
565.979797 56.405 -70.3381
570.081116 56.784 -72.8452
574.212158 57.195 -74.0752
578.373108 57.356 -67.9917
582.564209 57.963 -48.6151
586.785706 60.215 6.5391
591.037781 62.592 37.0155
595.320679 63.884 64.4409
599.634644 64.537 88.8923
603.979858 64.777 121.7281
608.356567 63.916 132.2532
612.764954 61.711 122.7508
617.205322 59.375 138.7864
621.677856 58.826 168.3397
626.182800 59.667 176.1629
630.720398 59.963 173.9345
635.290833 59.045 -172.3016
639.894409 57.783 -158.1769
644.531372 56.978 -155.7327
649.201904 57.148 -149.0746
653.906311 58.366 -149.1466
658.644775 59.841 64.4932
663.417603 60.969 8.6119
668.224976 61.543 -165.9627
673.067200 61.638 162.4326
677.944519 61.907 153.1553
682.857178 62.432 120.6838
687.805420 62.271 92.6113
692.789551 61.504 81.6275
697.809814 60.886 75.5757
702.866455 60.508 69.0233
707.959717 59.888 62.2690
713.089905 59.165 32.9636
718.257263 58.842 -7.4324
723.462036 59.226 -33.5915
728.704529 60.287 -98.4927
733.985046 61.765 -141.3668
739.303833 62.960 129.5730
744.661133 63.039 71.7366
750.057251 62.226 -34.7251
755.492493 61.285 -152.7842
760.967102 60.756 -169.9236
766.481384 60.895 -156.1008
772.035645 61.642 -150.6067
777.630127 62.603 -153.3376
783.265137 63.535 -154.6910
788.940979 63.744 -140.1101
794.657959 63.398 -94.0922
800.416382 63.173 -88.6859
806.216553 62.784 -107.9331
812.058716 62.114 -111.8301
817.943237 61.042 -94.8010
823.870361 59.896 -31.8702
829.840454 59.447 2.5200
835.853821 59.464 27.2733
841.910767 58.827 10.3729
848.011597 57.528 -0.1497
854.156616 57.002 -156.5474
860.346191 57.955 -167.6447
866.580627 59.038 -176.3319
872.860229 59.599 -171.3835
879.185364 59.534 -161.4248
885.556274 58.942 -147.3196
891.973389 58.475 -106.0830
898.437012 58.213 -94.4921
904.947449 57.736 -74.9109
911.505066 57.227 -18.6886
918.110229 57.077 52.3964
924.763245 57.592 99.1479
931.464478 58.166 93.7709
938.214233 58.342 92.2280
945.012939 58.286 80.5261
951.860901 57.826 61.2482
958.758484 56.746 53.3199
965.706055 55.851 73.9937
972.703979 55.924 90.6530
979.752563 55.758 91.5333
986.852234 54.541 108.3110
994.003357 53.288 117.6948
1001.206299 53.224 97.2850
1008.461426 54.673 103.2708
1015.769165 56.187 161.8484
1023.129822 56.447 176.4092
1030.543823 55.547 56.2254
1038.011597 54.713 41.9098
1045.533447 53.999 36.7601
1053.109863 53.459 47.1890
1060.741089 53.826 90.3593
1068.427612 54.274 129.5654
1076.169922 54.635 116.6218
1083.968262 55.893 7.7070
1091.823120 57.342 -36.3604
1099.734863 57.839 -67.0589
1107.703979 57.293 -133.7635
1115.730835 56.231 -158.4155
1123.815918 55.769 -178.5696
1131.959595 56.372 162.8445
1140.162231 57.976 -163.5679
1148.424316 59.788 -124.6138
1156.746216 60.809 -125.4410
1165.128418 60.807 -99.6716
1173.571411 60.251 -11.3857
1182.075562 59.429 -21.9731
1190.641357 58.669 -55.3799
1199.269287 57.894 -68.1960
1207.959717 57.281 54.3520
1216.713135 57.171 68.5843
1225.529907 57.073 -146.9728
1234.410645 57.014 -106.0682
1243.355713 56.983 -96.2937
1252.365601 56.786 -87.2092
1261.440796 56.286 -27.9651
1270.581665 56.163 5.1881
1279.788818 56.571 29.8975
1289.062744 57.469 80.7650
1298.403809 58.445 97.1488
1307.812622 58.916 98.5815
1317.289551 58.900 148.4857
1326.835205 59.136 -81.2392
1336.449951 58.966 -39.9210
1346.134399 58.262 30.0840
1355.889038 58.397 118.4228
1365.714355 59.449 135.8063
1375.610840 60.186 135.9780
1385.579102 60.915 167.2102
1395.619629 61.648 -135.8633
1405.732910 61.628 -112.2067
1415.919434 60.955 -56.8726
1426.179810 59.974 -29.6449
1436.514526 59.431 -17.5284
1446.924072 60.509 40.1096
1457.409058 62.210 93.4006
1467.970093 63.160 -21.2048
1478.607666 63.231 -52.5519
1489.322266 63.092 -44.5335
1500.114502 63.056 -36.4606
1510.984985 62.912 -26.4430
1521.934204 62.505 -4.6154
1532.962769 62.488 36.1035
1544.071289 62.819 34.6945
1555.260254 62.754 -0.9567
1566.530273 62.317 -12.0486
1577.881958 62.272 -6.9241
1589.315918 62.876 9.8427
1600.832764 63.525 28.1049
1612.433105 64.435 67.1356
1624.117432 65.135 92.4368
1635.886475 64.752 136.7319
1647.740723 64.608 168.1828
1659.680908 65.435 148.2566
1671.707642 65.722 139.3098
1683.821533 64.683 -171.3835
1696.023193 63.727 172.9750
1708.313232 64.530 153.8909
1720.692383 65.832 159.2917
1733.161255 66.487 167.5422
1745.720459 66.999 -178.3120
1758.370728 66.954 -149.9236
1771.112549 65.788 -121.6370
1783.946777 64.543 -99.2625
1796.874023 64.551 -102.4103
1809.894897 65.431 175.6273
1823.010132 66.133 148.6211
1836.220459 66.056 169.9155
1849.526489 65.218 -143.0285
1862.928955 64.552 -124.3717
1876.428467 64.617 -147.3671
1890.025879 65.461 160.2852
1903.721802 66.312 130.0703
1917.516968 66.256 116.3203
1931.412109 65.844 139.2499
1945.407959 65.521 -4.2157
1959.505127 65.269 10.2256
1973.704468 66.870 32.2200
1988.006714 70.943 72.1094
2002.412598 74.752 51.2963
2016.922852 76.353 33.7419
2031.538330 74.897 0.4727
2046.259644 71.259 -37.9388
2061.087646 67.075 142.0974
2076.023193 63.868 167.2861
2091.066895 61.905 -123.1163
2106.219727 61.056 -101.3347
2121.482178 60.959 -102.5540
2136.855225 60.759 -136.7678
2152.339844 61.064 -164.0746
2167.936523 62.089 -141.9522
2183.646240 63.454 -117.4053
2199.469727 64.697 -152.0147
2215.407959 64.726 -119.9678
2231.461670 63.855 -126.9946
2247.631836 63.397 -122.6280
2263.919189 64.012 -89.4401
2280.324463 64.533 -48.7941
2296.848633 64.145 -39.7529
2313.492432 63.563 148.7707
2330.256836 63.677 141.7545
2347.142822 64.440 113.5468
2364.151123 65.060 -81.5667
2381.282715 64.900 -168.3655
2398.538574 64.314 -152.5634
2415.919434 64.579 -113.6435
2433.426270 65.585 -141.9969
2451.059814 66.696 -169.8857
2468.821289 67.626 172.8768
2486.711426 68.180 137.1612
2504.731201 68.399 145.4006
2522.881592 69.011 143.1205
2541.163330 70.042 146.8055
2559.577637 70.517 42.5552
2578.125488 70.171 39.0645
2596.807617 69.427 58.0151
2615.625244 68.976 -137.5722
2634.579102 69.396 -127.9984
2653.670410 69.943 -126.2913
2672.899902 70.434 49.3164
2692.268799 70.766 132.2963
2711.778076 70.586 163.3804
2731.428711 69.995 156.9425
2751.221680 69.032 157.0089
2771.158203 68.213 -52.3055
2791.239258 68.396 75.5208
2811.465820 69.001 99.6135
2831.838867 69.722 115.6461
2852.359619 70.514 -158.7766
2873.029053 70.882 -6.4489
2893.848145 70.448 25.6447
2914.818115 69.584 168.2806
2935.940186 69.171 -157.5770
2957.215332 69.068 -168.2604
2978.644531 69.007 135.2200
3000.229004 68.878 93.5323
3021.969971 68.714 -2.4899
3043.868408 68.253 32.9431
3065.925537 67.482 136.7269
3088.142578 66.493 117.7843
3110.520508 65.512 88.8481
3133.060547 64.575 92.1249
3155.763916 64.430 61.7563
3178.631836 65.232 95.2207
3201.665527 66.130 130.9451
3224.866211 66.579 166.2240
3248.234863 66.229 164.3445
3271.772949 65.244 135.5946
3295.481445 64.547 178.9872
3319.361816 64.923 -161.7883
3343.415283 65.101 178.7717
3367.643066 64.851 -46.4717
3392.046387 64.758 -82.5848
3416.626465 64.788 -55.6304
3441.384766 64.573 -21.7908
3466.322510 64.605 -31.0768
3491.440918 64.859 -44.8756
3516.741455 65.338 -167.3121
3542.225098 65.386 -161.9153
3567.893555 64.598 -22.8085
3593.748047 64.176 113.3069
3619.789795 64.471 152.2725
3646.020264 64.839 179.1727
3672.440918 64.314 -113.8245
3699.052979 62.823 -120.0961
3725.857910 62.466 -126.6090
3752.856934 63.923 149.0017
3780.051758 65.400 62.7611
3807.443604 66.223 26.1765
3835.033936 67.022 -26.4701
3862.824219 67.841 -52.0889
3890.815918 68.313 -46.6002
3919.010254 69.150 123.9424
3947.408936 70.668 113.4414
3976.013428 72.816 105.8396
4004.825195 75.428 109.6675
4033.845703 76.553 115.4150
4063.076660 74.879 130.3109
4092.519287 71.284 122.4292
4122.175293 67.479 120.0520
4152.046387 65.218 137.5785
4182.133789 64.976 101.5884
4212.439453 66.136 19.8796
4242.964355 67.681 -77.8721
4273.710449 68.929 -80.2557
4304.679688 69.431 -102.9653
4335.873047 68.605 -106.6782
4367.292480 67.597 -115.3966
4398.939453 67.799 -179.5209
4430.815918 67.699 72.6012
4462.923340 66.880 117.6074
4495.263672 66.221 150.2054
4527.838379 65.797 138.9169
4560.648926 65.333 114.1678
4593.697266 65.243 131.5889
4626.984863 65.306 -169.5277
4660.513672 64.982 -161.5962
4694.285645 64.054 -148.2871
4728.302246 63.451 -148.4946
4762.565430 63.433 -178.8724
4797.077148 63.529 96.5739
4831.838867 63.393 91.2605
4866.852539 62.866 95.0963
4902.119629 62.836 156.6422
4937.642578 63.523 163.0800
4973.422852 64.088 156.7596
5009.462402 64.379 151.8188
5045.763184 65.167 -131.8293
5082.326660 66.444 10.1669
5119.155273 67.883 40.6362
5156.250977 69.483 61.7551
5193.615234 70.388 68.6392
5231.250488 70.271 63.7190
5269.158203 69.954 78.7161
5307.340820 69.939 -157.0267
5345.799805 70.017 -144.3931
5384.537598 69.802 -179.9069
5423.556152 69.391 56.4320
5462.857422 69.005 54.9785
5502.443359 68.578 46.6456
5542.316406 67.686 58.8363
5582.478516 66.379 -157.6671
5622.931641 65.756 -167.9510
5663.677734 65.559 160.6139
5704.719238 65.556 160.2740
5746.058105 65.875 160.9688
5787.696289 66.081 -0.4938
5829.636230 66.064 -17.2205
5871.880371 66.355 -61.4099
5914.430664 66.576 -106.1107
5957.289062 66.029 157.1550
6000.458008 65.012 113.8212
6043.939941 63.779 101.8065
6087.736816 62.593 97.6833
6131.851074 61.666 97.3473
6176.285156 60.574 82.0520
6221.041016 59.729 52.6019
6266.121094 60.254 49.9459
6311.527832 61.741 123.5421
6357.263672 63.082 139.0249
6403.331055 63.704 127.1188
6449.732422 63.455 137.1005
6496.469727 62.869 134.9631
6543.545898 61.981 144.9519
6590.962891 61.000 171.6979
6638.723633 60.238 163.3805
6686.830566 59.863 148.6190
6735.286133 60.062 149.5529
6784.092773 61.005 161.9982
6833.252930 62.067 177.0194
6882.769531 63.358 -175.8110
6932.645020 65.151 172.9552
6982.881836 67.042 132.9695
7033.482910 68.050 117.4233
7084.450195 68.060 119.9612
7135.787109 68.004 116.8525
7187.496094 68.176 130.5691
7239.579590 67.914 168.6317
7292.040527 67.108 159.5377
7344.881836 66.788 -50.9598
7398.105957 66.884 -82.5178
7451.715820 66.745 -115.0686
7505.713867 66.785 -151.8180
7560.103516 67.158 -162.6566
7614.887207 67.582 -149.4088
7670.067871 67.740 -119.0419
7725.648438 67.433 133.0538
7781.631836 67.082 147.8638
7838.020508 66.973 149.2267
7894.817871 66.986 134.4069
7952.026855 67.122 146.6298
8009.650391 67.509 167.9893
8067.691406 67.527 144.4180
8126.153320 66.691 111.4653
8185.038574 65.514 151.9312
8244.350586 64.471 -162.6907
8304.092773 63.614 168.2028
8364.267578 63.057 112.4991
8424.878906 62.915 106.9127
8485.928711 63.254 157.0565
8547.420898 63.946 -142.2360
8609.359375 64.968 -139.4348
8671.746094 65.455 -157.9059
8734.584961 64.766 -165.4170
8797.878906 63.657 -175.7335
8861.631836 62.518 147.2069
8925.846680 61.822 123.4065
8990.527344 61.861 121.7550
9055.676758 62.399 135.0518
9121.297852 62.723 161.9636
9187.394531 62.834 170.0345
9253.969727 62.817 142.6445
9321.027344 62.377 30.3729
9388.571289 61.457 10.6702
9456.604492 60.234 -46.7943
9525.130859 59.909 -86.8014
9594.154297 61.478 -137.8250
9663.677734 63.522 -169.0557
9733.705078 65.089 175.7594
9804.239258 66.172 147.7068
9875.285156 66.805 102.6841
9946.845703 66.897 31.3568
10018.924805 66.411 -20.9247
10091.526367 65.561 -62.9363
10164.653320 64.519 12.7486
10238.310547 64.003 75.4973
10312.501953 64.642 100.7532
10387.230469 65.816 124.1305
10462.500977 66.577 157.6871
10538.316406 66.485 174.1324
10614.681641 65.615 -147.1523
10691.599609 64.249 -140.4570
10769.075195 62.762 -141.2626
10847.112305 61.375 -135.1753
10925.714844 60.564 -148.8900
11004.886719 60.838 -174.8767
11084.632812 61.716 -176.3291
11164.957031 62.465 -19.2819
11245.863281 62.808 -104.3137
11327.355469 62.918 -114.9983
11409.438477 63.018 -121.9819
11492.116211 62.803 -160.0657
11575.392578 62.604 -174.3813
11659.272461 63.041 -175.3606
11743.760742 63.342 -175.5883
11828.861328 62.689 165.3762
11914.578125 61.229 103.7340
12000.916016 59.920 97.5641
12087.879883 59.815 139.7217
12175.473633 60.680 154.3207
12263.702148 61.484 156.2798
12352.570312 61.697 -141.6914
12442.082031 61.452 -101.6221
12532.242188 60.957 -97.2185
12623.055664 60.512 -125.7926
12714.527344 60.509 -57.3440
12806.662109 60.847 -19.1760
12899.464844 60.760 -139.1873
12992.939453 60.152 -99.4202
13087.091797 59.447 -99.4817
13181.925781 59.070 -112.9275
13277.447266 59.021 -117.4380
13373.661133 59.331 -139.5449
13470.572266 59.768 150.4646
13568.185547 59.803 175.0186
13666.505859 59.466 -150.6514
13765.539062 59.119 -83.6895
13865.290039 58.708 -60.3948
13965.763672 58.329 -39.1458
14066.965820 58.094 -99.9114
14168.900391 58.222 -155.4927
14271.574219 59.044 -143.0005
14374.992188 60.161 178.4929
14479.159180 60.753 166.4543
14584.081055 60.203 168.4209
14689.763672 59.009 139.3842
14796.211914 58.508 102.0367
14903.431641 59.231 75.5672
15011.427734 60.211 -27.0202
15120.207031 60.684 -58.8134
15229.774414 60.179 -80.1954
15340.135742 58.759 -106.4952
15451.296875 57.271 -155.7354
15563.263672 57.272 86.6224
15676.041016 58.510 115.5821
15789.635742 59.345 -175.3583
15904.053711 59.220 -146.8268
16019.300781 58.229 -168.1663
16135.382812 57.124 -153.2056
16252.306641 57.210 135.4153
16370.077148 57.878 111.2926
16488.701172 58.012 -143.8956
16608.185547 57.585 -116.1920
16728.535156 57.084 -116.8585
16849.757812 57.240 -150.0254
16971.857422 57.760 -164.1926
17094.841797 58.050 -171.7163
17218.718750 58.193 -103.4695
17343.492188 58.399 -54.5865
17469.169922 58.532 -29.0438
17595.757812 58.386 105.7034
17723.263672 57.864 118.0256
17851.693359 56.956 120.7940
17981.054688 56.166 103.1934
18111.353516 56.150 126.9702
18242.595703 56.655 -84.5442
18374.789062 57.125 -36.5060
18507.939453 57.255 175.4978
18642.054688 58.036 81.2678
18777.142578 62.059 37.8611
18913.208984 68.248 6.1139
19050.261719 74.106 -69.5682
19188.308594 78.655 -124.3817
19327.355469 81.233 -134.4426
19467.410156 81.419 -135.6453
19608.478516 80.916 -147.8502
19750.570312 81.540 133.8956
19893.691406 81.064 88.1687
20037.849609 0.000 -46.4331
