* Measurement data measured by REW V5.30.2
* Source: EXCL: Microphone (Umik-1  Gain: 18dB), MICROPHONE (Master Volume), L, volume: 0.540
* Format: 256k Log Swept Sine, 1 sweep at -20.0 dBFS with no timing reference
* Dated: Jan 11, 2024 5:48:07 PM
* REW Settings:
*  C-weighting compensation: Off
*  Target level: 75.0 dB
* Note: measured 0.5 m away from mic; 
* Measurement: Fan 5
* Smoothing: 1/48 octave
* Frequency Step: 96 ppo
* Start Frequency: 20.141602 Hz
*
* Freq(Hz) SPL(dB) Phase(degrees)
20.141602 60.692 98.1427
20.287556 60.111 91.4719
20.434568 59.345 82.6730
20.582645 58.265 73.2580
20.731796 56.703 59.7458
20.882027 55.155 41.3680
21.033346 53.906 11.5181
21.185762 53.368 -37.8489
21.339283 54.188 -78.2200
21.493916 55.999 -104.1372
21.649670 57.742 -120.0860
21.806553 59.165 -133.6265
21.964573 60.301 -144.6370
22.123737 61.111 -154.4015
22.284056 61.626 -163.6904
22.445536 61.881 -171.5997
22.608185 61.876 -179.5109
22.772013 61.622 173.7158
22.937029 61.121 167.3283
23.103241 60.390 161.7422
23.270657 59.429 157.3389
23.439285 58.319 153.8896
23.609137 57.109 152.4005
23.780218 55.992 152.6909
23.952539 55.239 154.3540
24.126110 54.927 156.9774
24.300938 55.154 157.9639
24.477032 55.784 157.5402
24.654402 56.520 155.0924
24.833057 57.272 151.4055
25.013008 57.875 147.4282
25.194263 58.294 143.1465
25.376831 58.474 139.7468
25.560722 58.404 136.8774
25.745945 58.074 135.6609
25.932510 57.510 136.1166
26.120428 56.813 139.1583
26.309708 56.102 145.3387
26.500359 55.682 153.9076
26.692390 55.612 163.7967
26.885815 55.903 171.6612
27.080641 56.365 176.9882
27.276878 56.710 179.1697
27.474539 56.818 179.3825
27.673630 56.563 177.8941
27.874165 55.851 175.9156
28.076153 54.601 173.6604
28.279604 52.646 173.3484
28.484529 50.129 179.0291
28.690941 48.866 -144.1665
28.898848 49.639 -80.4903
29.108261 51.918 -67.7656
29.319191 54.312 -67.1729
29.531651 55.804 -70.5924
29.745649 56.567 -74.9459
29.961199 56.637 -80.6154
30.178310 55.988 -86.4564
30.396996 54.572 -93.6442
30.617264 52.274 -103.2897
30.839128 50.660 -129.9692
31.062601 51.063 99.3288
31.287693 53.053 79.4335
31.514416 55.279 69.9930
31.742783 56.543 61.6367
31.972803 56.976 53.7500
32.204491 56.619 44.4517
32.437859 55.503 33.0822
32.672916 53.838 16.3311
32.909679 52.027 -16.7910
33.148155 51.367 -70.5013
33.388359 51.733 -108.6910
33.630306 52.405 -130.4667
33.874004 52.399 -146.3951
34.119469 51.711 -164.2166
34.366711 50.747 163.9583
34.615746 51.068 103.4721
34.866585 52.565 61.2437
35.119244 54.432 41.9786
35.373734 55.633 31.3308
35.630066 56.054 24.4376
35.888256 55.669 19.9922
36.148315 54.497 19.2064
36.410259 52.667 24.2026
36.674103 50.721 40.8427
36.939857 49.604 72.3082
37.207539 49.849 97.2972
37.477161 50.557 109.8189
37.748737 50.977 116.3231
38.022282 50.896 121.5340
38.297806 50.464 127.6521
38.575329 49.848 135.3564
38.854862 49.190 144.9484
39.136421 48.595 156.3130
39.420021 48.197 169.9213
39.705673 48.204 -175.0660
39.993397 48.654 -161.7236
40.283207 49.336 -152.7225
40.575115 49.805 -148.4426
40.869141 49.740 -146.9712
41.165295 48.969 -146.0828
41.463596 47.440 -143.1499
41.764057 45.340 -133.1465
42.066696 43.420 -111.5350
42.371529 42.667 -93.3193
42.678570 42.473 -91.6118
42.987835 42.241 -105.5030
43.299343 41.976 -137.6728
43.613110 42.078 179.4411
43.929150 42.340 148.0589
44.247478 41.969 127.9601
44.568115 40.847 112.8862
44.891075 40.686 69.1844
45.216373 42.478 -85.8446
45.544029 44.842 -95.9113
45.874062 46.268 -104.8342
46.206486 46.548 -113.3286
46.541317 45.750 -122.0238
46.878574 43.936 -132.3672
47.218277 41.212 -148.5369
47.560440 37.992 179.5570
47.905083 35.284 143.4692
48.252224 34.406 144.3981
48.601879 36.126 -171.1943
48.954067 38.911 -141.3157
49.308807 41.237 -127.9803
49.666119 42.734 -115.4294
50.026020 43.751 -98.0480
50.388531 44.698 -78.3841
50.753666 45.491 -64.7374
51.121449 45.643 -59.9009
51.491894 44.906 -63.9355
51.865025 44.288 -98.3640
52.240860 45.349 152.3962
52.619419 47.097 135.8779
53.000721 47.895 131.2483
53.384785 47.354 134.0691
53.771633 45.997 151.3865
54.161285 45.032 -177.1770
54.553761 44.693 -161.7190
54.949081 44.018 -167.6326
55.347263 43.177 146.0535
55.748333 43.220 69.4194
56.152309 43.498 49.9897
56.559212 43.356 54.6934
56.969063 44.220 149.0737
57.381886 46.047 172.5762
57.797699 47.033 175.7092
58.216526 46.665 -175.6127
58.638386 45.929 -141.4114
59.063305 46.126 -95.8203
59.491302 46.510 -77.9078
59.922401 45.953 -64.4429
60.356625 45.069 -28.3350
60.793995 45.293 27.0041
61.234531 46.140 49.1726
61.678261 46.459 60.6112
62.125206 46.118 71.0845
62.575390 45.357 80.2022
63.028835 44.285 85.6870
63.485569 42.994 88.1564
63.945610 41.805 89.4923
64.408989 40.958 88.5536
64.875725 40.317 81.8605
65.345840 40.437 42.5303
65.819366 42.140 -81.9221
66.296318 43.979 -93.8902
66.776726 44.622 -95.1953
67.260620 44.097 -84.5625
67.748016 43.188 -59.6807
68.238945 42.260 -38.4097
68.733429 40.691 -28.2995
69.231499 38.558 -5.0975
69.733177 37.293 140.3770
70.238495 36.822 156.4471
70.747475 36.373 -172.0297
71.260139 36.251 -139.7832
71.776520 36.491 -130.5189
72.296638 38.105 72.0727
72.820526 40.941 50.9623
73.348213 43.335 36.9018
73.879723 44.893 13.6910
74.415085 45.954 -22.4625
74.954330 46.696 -62.1035
75.497482 46.811 -89.9509
76.044571 45.888 -106.7187
76.595619 44.142 -113.9579
77.150665 43.960 -129.5325
77.709732 47.088 89.0110
78.272850 50.660 94.2772
78.840050 53.095 95.3530
79.411354 54.122 95.7723
79.986801 53.850 100.3865
80.566422 52.686 113.0977
81.150238 51.130 129.5303
81.738289 49.192 139.2506
82.330597 46.528 140.7488
82.927200 43.251 134.0645
83.528122 40.833 109.1586
84.133400 41.455 -6.2461
84.743065 43.593 -61.5201
85.357147 44.884 -77.6803
85.975677 44.617 -79.7759
86.598694 43.419 -54.9772
87.226227 42.435 -14.0420
87.858307 41.551 6.2603
88.494965 40.358 19.5593
89.136238 39.036 19.4082
89.782158 37.389 -2.0743
90.432755 35.257 -36.0272
91.088066 33.779 -67.7460
91.748131 35.012 -102.5978
92.412979 37.263 -128.6804
93.082642 38.594 -145.2979
93.757156 38.790 -158.7172
94.436562 38.193 -174.7302
95.120888 37.055 164.3616
95.810173 35.842 153.4926
96.504456 35.399 -73.3459
97.203766 35.304 -81.1309
97.908142 35.229 1.9238
98.617622 35.672 27.0034
99.332245 37.055 -7.7755
100.052048 40.200 -46.1727
100.777069 43.525 -43.4534
101.507339 45.418 -44.3207
102.242905 45.317 -44.5179
102.983795 43.493 -34.2970
103.730057 41.270 -8.8507
104.481728 40.631 -178.2153
105.238846 40.982 -164.7421
106.001450 40.668 -142.3358
106.769577 40.078 -102.2937
107.543274 40.109 -9.3741
108.322578 40.444 18.7880
109.107529 39.631 18.4656
109.898170 37.770 14.3511
110.694534 37.543 153.7500
111.496674 40.001 164.4500
112.304626 42.575 165.0566
113.118431 44.720 162.5931
113.938133 46.982 79.1000
114.763779 49.225 -0.3330
115.595406 50.700 -20.3130
116.433060 51.778 -77.8186
117.276779 52.996 -148.6193
118.126617 53.583 -161.6313
118.982613 53.449 -125.2059
119.844810 53.271 -77.7822
120.713257 52.468 -76.0876
121.587997 50.914 65.7632
122.469070 48.914 70.6625
123.356529 46.693 70.8099
124.250420 45.338 52.4613
125.150787 44.427 35.7166
126.057678 42.938 45.1964
126.971146 41.737 151.3652
127.891228 41.739 -136.5181
128.817978 42.135 -49.8993
129.751450 42.198 -2.3130
130.691681 41.312 10.2284
131.638733 39.686 157.5973
132.592636 37.987 148.4987
133.553452 37.799 116.0777
134.521240 38.720 120.3464
135.496033 39.393 157.5529
136.477890 40.006 -158.2382
137.466858 41.103 -162.7446
138.462997 42.557 79.4490
139.466354 43.204 79.2165
140.476990 43.000 100.2144
141.494949 43.625 78.1062
142.520279 45.091 19.6241
143.553040 45.867 10.3331
144.593277 45.943 144.0237
145.641052 45.923 158.8890
146.696426 45.357 138.0530
147.759445 44.323 114.3209
148.830170 43.182 113.0956
149.908661 42.606 -175.1281
150.994965 43.435 -74.6156
152.089142 44.529 -76.2410
153.191238 44.570 -101.2395
154.301331 43.658 -97.0062
155.419464 42.463 -80.2760
156.545700 41.856 -114.6816
157.680099 42.955 140.4282
158.822708 44.311 74.5788
159.973602 44.541 39.2727
161.132843 43.383 29.5720
162.300476 41.592 49.0879
163.476578 40.996 43.9341
164.661194 42.059 -46.8473
165.854401 42.989 -47.5962
167.056244 42.572 -40.4213
168.266800 41.529 -24.3476
169.486130 42.127 -21.7562
170.714294 43.939 -33.4539
171.951355 44.942 -48.3850
173.197388 44.670 -58.8002
174.452454 43.623 -58.0639
175.716614 42.710 -61.8278
176.989929 42.184 -83.0739
178.272476 42.839 -4.5367
179.564316 44.338 -10.6563
180.865509 44.686 -18.4589
182.176132 43.268 -7.4468
183.496262 40.979 14.7055
184.825958 39.627 13.0541
186.165283 40.257 -118.6595
187.514313 41.483 -162.2258
188.873123 42.046 -146.2450
190.241776 42.460 -9.2249
191.620346 43.364 74.9167
193.008911 44.923 30.3435
194.407532 46.993 5.1608
195.816284 48.819 31.5927
197.235245 49.456 29.8388
198.664490 48.678 1.5106
200.104095 47.621 -18.9464
201.554138 47.065 -19.7487
203.014679 46.552 -22.9310
204.485809 46.264 -34.9184
205.967590 46.316 -44.6406
207.460114 45.786 -50.9254
208.963455 44.444 -51.4250
210.477692 43.388 -21.7192
212.002899 43.329 -0.4673
213.539154 44.238 0.2437
215.086548 45.441 -8.8564
216.645157 46.108 -48.8545
218.215057 46.157 -81.0726
219.796341 45.784 -90.2291
221.389069 44.798 -87.8813
222.993347 43.671 -94.5360
224.609253 42.724 -118.2524
226.236862 41.878 -113.4264
227.876266 41.736 -93.6212
229.527557 42.593 -58.7141
231.190811 44.102 -42.0015
232.866119 46.022 -19.0223
234.553558 47.943 91.6108
236.253235 49.028 8.9281
237.965225 49.139 -55.3245
239.689621 48.628 -29.2878
241.426514 47.975 -43.3739
243.175995 47.711 -74.6039
244.938141 47.714 -85.9662
246.713058 48.025 -85.8906
248.500839 48.819 -70.1849
250.301575 49.457 -27.5477
252.115356 49.302 -25.5073
253.942291 48.967 -64.6689
255.782455 49.001 -75.9878
257.635956 48.863 -71.7417
259.502899 48.626 -61.9428
261.383362 48.572 -44.1217
263.277466 48.535 -51.6544
265.185272 48.344 -95.6042
267.106903 47.817 -139.3566
269.042480 47.752 -132.7217
270.992065 48.475 -95.8619
272.955780 48.452 -99.5272
274.933716 47.662 -100.9545
276.925995 47.661 -75.0037
278.932709 49.006 -65.0164
280.953979 50.744 -80.5591
282.989899 51.510 -88.2787
285.040558 51.102 -106.5759
287.106079 50.600 -104.7115
289.186554 50.597 -94.0356
291.282104 50.914 -104.8381
293.392853 50.487 -119.4904
295.518890 49.105 -116.4202
297.660339 48.412 -113.0848
299.817322 49.404 -100.3954
301.989929 51.085 -86.0937
304.178284 52.425 -92.1861
306.382477 53.054 -105.8173
308.602661 53.044 -131.3408
310.838928 52.498 164.1202
313.091400 51.857 150.2902
315.360199 51.299 177.9712
317.645416 51.555 -124.0693
319.947205 52.391 -126.3239
322.265686 52.110 -137.4363
324.600952 50.495 -152.2201
326.953156 49.209 -158.1735
329.322388 50.014 -129.5645
331.708801 52.184 -132.8208
334.112488 54.385 -147.5061
336.533600 55.725 -129.1360
338.972260 55.555 -110.4729
341.428589 54.606 -104.7298
343.902710 53.973 -118.9431
346.394775 53.300 -123.4229
348.904907 53.077 -118.0231
351.433228 54.148 -134.0759
353.979858 55.855 -154.2703
356.544952 57.605 -167.7249
359.128632 58.954 -178.5366
361.731018 59.271 -178.8184
364.352264 58.507 171.3015
366.992523 57.789 163.7952
369.651917 57.739 -149.4291
372.330566 57.111 -95.6035
375.028625 55.330 -79.3295
377.746246 53.972 -79.8836
380.483551 54.709 -141.3796
383.240692 56.075 174.9307
386.017822 56.862 166.4858
388.815063 56.905 -167.4827
391.632568 56.370 -154.1130
394.470490 55.631 -141.4708
397.328979 54.967 -115.4203
400.208191 54.244 -115.1542
403.108276 53.268 -119.3040
406.029358 52.357 -121.6882
408.971619 52.030 -109.3557
411.935181 52.114 -97.3813
414.920227 52.383 -108.3422
417.926910 52.769 172.2762
420.955383 52.904 156.7268
424.005798 53.029 162.9366
427.078308 53.732 83.5654
430.173096 54.759 12.8672
433.290314 55.238 -72.9700
436.430115 55.286 -112.4825
439.592682 55.458 -134.3132
442.778137 55.468 -152.0785
445.986694 55.402 -143.9912
449.218506 56.053 -109.0135
452.473724 56.960 -111.3684
455.752533 57.100 -144.6620
459.055115 56.064 -151.2080
462.381622 54.826 -156.4648
465.732239 55.043 134.8921
469.107117 56.241 89.9043
472.506470 56.806 163.5566
475.930450 56.409 -169.1294
479.379242 55.355 175.9373
482.853027 54.138 -176.7452
486.351990 53.840 -165.4026
489.876282 54.974 163.2000
493.426117 56.514 175.1304
497.001678 57.534 -155.1235
500.603149 57.593 -147.4279
504.230713 56.905 -169.1642
507.884583 56.234 -169.0001
511.564911 56.507 -151.0079
515.271912 57.731 -145.2542
519.005798 58.582 -146.9731
522.766724 58.490 -164.4865
526.554932 58.050 -177.6383
530.370544 58.409 176.9077
534.213806 59.468 -171.8494
538.084961 60.079 -175.2283
541.984131 60.082 179.9413
545.911560 59.827 -169.5099
549.867432 59.122 -152.0981
553.851990 58.017 -148.8309
557.865417 57.336 -176.6202
561.907959 56.903 171.8290
565.979797 56.310 165.9185
570.081116 55.520 160.7972
574.212158 54.679 157.1057
578.373108 54.276 172.4714
582.564209 54.655 173.6294
586.785706 55.200 165.2188
591.037781 55.729 164.7548
595.320679 56.847 174.1997
599.634644 58.836 -151.3998
603.979858 60.718 -164.8879
608.356567 61.877 -179.2080
612.764954 62.351 165.9011
617.205322 62.466 157.0546
621.677856 62.383 148.2026
626.182800 61.815 143.4027
630.720398 60.885 147.3478
635.290833 59.986 138.2078
639.894409 59.107 136.0264
644.531372 58.361 132.6472
649.201904 57.997 118.3485
653.906311 57.681 124.6864
658.644775 57.019 152.8348
663.417603 56.574 149.1176
668.224976 56.859 123.2163
673.067200 57.168 116.3187
677.944519 57.124 140.0322
682.857178 57.456 170.0697
687.805420 58.427 165.7529
692.789551 59.494 158.2523
697.809814 59.962 158.0298
702.866455 59.825 146.5258
707.959717 59.433 131.2950
713.089905 58.735 126.2117
718.257263 57.832 115.5188
723.462036 56.847 106.5981
728.704529 56.114 109.4083
733.985046 56.165 126.2198
739.303833 56.747 130.0515
744.661133 57.099 118.4521
750.057251 56.884 98.6611
755.492493 56.348 104.1589
760.967102 56.143 118.4646
766.481384 56.530 119.5814
772.035645 57.467 148.3967
777.630127 58.539 163.3865
783.265137 59.111 141.1936
788.940979 58.928 123.2002
794.657959 58.215 118.9323
800.416382 57.528 123.4084
806.216553 56.959 121.2783
812.058716 56.190 106.4178
817.943237 55.783 93.2365
823.870361 56.162 100.3296
829.840454 57.206 112.4756
835.853821 58.564 -137.5491
841.910767 59.588 178.9065
848.011597 60.024 166.0017
854.156616 59.946 138.0824
860.346191 59.240 83.3112
866.580627 58.176 44.2527
872.860229 57.477 170.9523
879.185364 57.096 -171.5350
885.556274 56.487 178.3047
891.973389 56.044 175.3889
898.437012 56.175 -128.8698
904.947449 56.439 -165.8369
911.505066 56.575 157.0382
918.110229 56.777 146.4501
924.763245 56.968 146.7124
931.464478 57.051 179.2662
938.214233 57.152 -158.2072
945.012939 57.283 -171.5261
951.860901 57.827 -172.5298
958.758484 58.207 178.2460
965.706055 57.737 154.4325
972.703979 56.964 146.1938
979.752563 56.355 173.2791
986.852234 56.282 -163.2825
994.003357 56.905 -156.0210
1001.206299 57.262 -164.9567
1008.461426 57.266 175.5446
1015.769165 57.740 175.4039
1023.129822 58.240 167.7964
1030.543823 58.160 144.4349
1038.011597 57.351 141.6019
1045.533447 56.978 156.7456
1053.109863 58.033 166.1357
1060.741089 59.441 174.3352
1068.427612 60.019 177.2415
1076.169922 59.646 163.7729
1083.968262 58.929 151.8894
1091.823120 59.069 141.7222
1099.734863 59.759 153.6785
1107.703979 60.146 165.3523
1115.730835 60.369 165.9231
1123.815918 60.470 161.5549
1131.959595 60.076 158.9482
1140.162231 59.603 161.0851
1148.424316 59.682 162.5074
1156.746216 60.156 159.6667
1165.128418 60.361 156.0393
1173.571411 60.195 152.8113
1182.075562 59.946 139.8674
1190.641357 59.854 131.7894
1199.269287 59.764 138.5867
1207.959717 59.398 138.0360
1216.713135 59.112 137.5598
1225.529907 59.303 149.0541
1234.410645 59.700 152.1240
1243.355713 59.970 144.4136
1252.365601 60.313 134.4121
1261.440796 60.678 130.9218
1270.581665 60.810 130.9094
1279.788818 60.639 137.3408
1289.062744 60.006 132.5435
1298.403809 59.609 135.2542
1307.812622 59.863 132.3654
1317.289551 59.805 117.0028
1326.835205 59.052 109.7065
1336.449951 58.558 126.7854
1346.134399 59.256 148.8027
1355.889038 60.592 141.4664
1365.714355 61.176 127.4938
1375.610840 60.890 128.7229
1385.579102 60.233 145.5624
1395.619629 59.924 164.0415
1405.732910 60.656 157.8633
1415.919434 61.897 147.6978
1426.179810 62.875 138.7899
1436.514526 63.512 134.2046
1446.924072 63.510 137.5281
1457.409058 63.080 132.2382
1467.970093 62.702 138.2390
1478.607666 62.646 154.7308
1489.322266 63.116 148.0471
1500.114502 63.742 124.3386
1510.984985 63.615 114.9557
1521.934204 62.783 117.8373
1532.962769 62.329 104.3365
1544.071289 62.068 103.7352
1555.260254 61.390 118.7203
1566.530273 60.975 113.1796
1577.881958 61.492 107.8477
1589.315918 62.755 123.0068
1600.832764 63.293 120.9215
1612.433105 62.357 112.1422
1624.117432 60.926 122.2482
1635.886475 60.376 139.1920
1647.740723 60.085 134.8507
1659.680908 59.634 124.1555
1671.707642 59.956 125.8264
1683.821533 61.088 135.6494
1696.023193 61.849 128.9231
1708.313232 61.289 113.3153
1720.692383 60.426 126.1619
1733.161255 60.806 132.4156
1745.720459 61.540 108.1282
1758.370728 62.123 125.0050
1771.112549 62.552 153.0746
1783.946777 62.376 148.5795
1796.874023 61.952 143.6737
1809.894897 61.949 144.8163
1823.010132 61.937 141.1310
1836.220459 62.358 133.6630
1849.526489 63.317 133.5176
1862.928955 63.404 140.3903
1876.428467 62.340 147.0072
1890.025879 61.383 141.5958
1903.721802 60.893 134.4911
1917.516968 60.552 142.0905
1931.412109 60.541 140.3536
1945.407959 61.124 148.6097
1959.505127 62.938 146.6866
1973.704468 66.557 148.1208
1988.006714 70.369 105.7340
2002.412598 72.291 -12.9623
2016.922852 71.240 14.4169
2031.538330 67.956 77.2413
2046.259644 64.457 121.1447
2061.087646 62.421 115.6906
2076.023193 60.979 112.4728
2091.066895 60.200 160.9375
2106.219727 60.290 174.4308
2121.482178 60.568 -28.0189
2136.855225 60.625 -11.6962
2152.339844 60.431 -120.4220
2167.936523 60.302 -140.2671
2183.646240 60.565 -141.2767
2199.469727 60.615 -149.0894
2215.407959 60.221 -166.2130
2231.461670 59.953 -155.0581
2247.631836 60.032 -142.1680
2263.919189 60.307 -154.6265
2280.324463 60.321 -170.1498
2296.848633 60.332 -169.4614
2313.492432 60.735 -152.8795
2330.256836 61.200 -158.4802
2347.142822 61.538 -166.3177
2364.151123 61.490 -172.4343
2381.282715 61.393 -179.5391
2398.538574 61.555 175.6459
2415.919434 61.977 -174.6498
2433.426270 62.537 -174.5792
2451.059814 62.789 -171.7451
2468.821289 62.792 -177.9147
2486.711426 63.108 162.9822
2504.731201 63.575 156.9871
2522.881592 63.956 167.5288
2541.163330 64.354 174.1299
2559.577637 65.189 176.8760
2578.125488 66.290 169.3053
2596.807617 67.027 158.6982
2615.625244 66.867 166.8774
2634.579102 66.571 173.3729
2653.670410 66.959 -179.5477
2672.899902 67.617 -157.4807
2692.268799 68.211 171.6539
2711.778076 68.430 158.7783
2731.428711 67.889 152.9810
2751.221680 67.709 95.3826
2771.158203 68.007 68.4141
2791.239258 67.914 -138.7559
2811.465820 67.651 -170.4410
2831.838867 67.748 148.7871
2852.359619 68.290 133.8412
2873.029053 68.472 153.1156
2893.848145 67.946 117.8259
2914.818115 67.571 112.1569
2935.940186 68.063 158.6165
2957.215332 69.069 -115.0714
2978.644531 69.795 -128.4010
3000.229004 70.064 -140.7878
3021.969971 69.904 -163.4502
3043.868408 69.780 -151.0189
3065.925537 69.855 -144.2781
3088.142578 69.830 -150.7782
3110.520508 69.505 -153.2572
3133.060547 68.993 -133.9518
3155.763916 68.296 -130.5771
3178.631836 67.772 -138.9988
3201.665527 67.865 -130.8461
3224.866211 68.351 -143.1274
3248.234863 68.500 -155.1062
3271.772949 68.257 -151.9167
3295.481445 68.407 -153.6587
3319.361816 68.861 -164.3292
3343.415283 68.616 -170.6931
3367.643066 67.729 -173.9689
3392.046387 66.992 -175.0038
3416.626465 66.572 -172.7048
3441.384766 66.333 -175.5417
3466.322510 66.011 -171.8123
3491.440918 65.453 -174.9792
3516.741455 65.198 178.9128
3542.225098 64.717 178.8055
3567.893555 63.969 -176.0958
3593.748047 63.439 -172.1227
3619.789795 63.240 -150.7014
3646.020264 63.848 -136.7362
3672.440918 64.831 -140.3260
3699.052979 65.643 -137.4915
3725.857910 66.276 -140.0757
3752.856934 66.911 -142.7610
3780.051758 67.510 -137.0470
3807.443604 67.980 -137.0559
3835.033936 69.063 160.7773
3862.824219 70.764 139.5680
3890.815918 72.077 145.6292
3919.010254 72.839 -159.6938
3947.408936 73.881 -137.2271
3976.013428 75.244 -162.5170
4004.825195 76.197 161.0530
4033.845703 76.125 128.2742
4063.076660 75.345 173.5785
4092.519287 74.685 -140.5574
4122.175293 74.572 -100.8158
4152.046387 74.522 -61.5768
4182.133789 74.593 -79.9594
4212.439453 75.126 -61.9768
4242.964355 75.448 -38.4833
4273.710449 75.698 -123.0872
4304.679688 75.982 -166.7982
4335.873047 75.942 -172.0181
4367.292480 75.437 -171.2776
4398.939453 74.738 171.3234
4430.815918 73.980 -108.8230
4462.923340 73.237 -135.5640
4495.263672 72.238 -167.4867
4527.838379 71.098 143.4607
4560.648926 70.148 117.5840
4593.697266 69.418 108.3357
4626.984863 68.922 -87.1754
4660.513672 68.655 -82.8508
4694.285645 68.401 -60.1218
4728.302246 68.427 -52.8779
4762.565430 68.618 -62.9355
4797.077148 68.652 -86.2404
4831.838867 68.593 -99.7108
4866.852539 68.471 -93.8102
4902.119629 68.369 -92.3628
4937.642578 68.342 -116.2266
4973.422852 68.533 -125.1954
5009.462402 68.938 -131.5897
5045.763184 69.235 174.3527
5082.326660 69.121 -66.3724
5119.155273 68.617 -8.6075
5156.250977 68.436 -11.2360
5193.615234 68.848 -41.2134
5231.250488 69.195 -77.4600
5269.158203 68.894 -110.0757
5307.340820 68.182 -121.7893
5345.799805 67.548 -111.3318
5384.537598 66.955 -149.9735
5423.556152 66.694 -165.5800
5462.857422 66.511 -159.1138
5502.443359 65.855 -82.4829
5542.316406 64.688 12.6149
5582.478516 63.345 19.2563
5622.931641 62.302 -57.1143
5663.677734 61.751 -60.8525
5704.719238 61.630 -72.6692
5746.058105 61.824 -88.6697
5787.696289 62.372 -115.3137
5829.636230 62.989 -131.7247
5871.880371 63.564 -149.6187
5914.430664 64.129 -157.5428
5957.289062 64.984 -159.4170
6000.458008 65.962 114.9054
6043.939941 66.111 27.2949
6087.736816 65.796 -20.0505
6131.851074 65.476 20.0056
6176.285156 65.351 9.8231
6221.041016 65.591 -0.7706
6266.121094 65.851 -2.9335
6311.527832 65.570 11.3634
6357.263672 64.747 -6.5509
6403.331055 63.802 -58.0243
6449.732422 63.425 -85.5116
6496.469727 63.391 -109.1514
6543.545898 63.396 -107.4739
6590.962891 63.390 -114.9591
6638.723633 63.242 -128.8418
6686.830566 63.454 -139.7231
6735.286133 64.232 -152.7229
6784.092773 65.212 179.1198
6833.252930 66.100 162.7314
6882.769531 66.656 168.4652
6932.645020 66.864 -174.2183
6982.881836 66.803 -175.2056
7033.482910 66.632 173.7898
7084.450195 66.577 159.8665
7135.787109 66.682 146.1008
7187.496094 66.632 129.9023
7239.579590 66.306 103.9430
7292.040527 65.778 57.6864
7344.881836 65.263 13.2443
7398.105957 64.813 176.3492
7451.715820 64.413 166.0697
7505.713867 64.134 155.0006
7560.103516 63.642 146.3740
7614.887207 62.788 129.3341
7670.067871 62.131 117.5880
7725.648438 61.830 116.6420
7781.631836 62.098 129.3712
7838.020508 62.600 143.4635
7894.817871 62.757 143.9303
7952.026855 62.855 136.8993
8009.650391 63.203 134.0278
8067.691406 63.019 113.6073
8126.153320 62.727 110.6676
8185.038574 63.033 112.8381
8244.350586 63.852 108.4421
8304.092773 64.787 141.6219
8364.267578 65.866 152.0295
8424.878906 67.021 99.4285
8485.928711 67.897 82.4288
8547.420898 68.483 70.6429
8609.359375 68.893 50.5634
8671.746094 68.999 39.2065
8734.584961 68.936 125.9399
8797.878906 68.966 164.5028
8861.631836 69.037 158.7737
8925.846680 68.909 131.1722
8990.527344 68.480 40.9758
9055.676758 67.828 32.9508
9121.297852 67.270 17.1750
9187.394531 66.776 2.2012
9253.969727 66.018 -0.9614
9321.027344 65.268 83.1379
9388.571289 64.732 38.3535
9456.604492 64.372 25.1245
9525.130859 64.310 54.1670
9594.154297 64.838 94.0164
9663.677734 65.454 49.6913
9733.705078 65.907 19.6588
9804.239258 66.135 -6.9739
9875.285156 65.941 -48.9576
9946.845703 65.301 -95.1680
10018.924805 64.252 -127.0210
10091.526367 63.019 -179.3894
10164.653320 62.199 6.6423
10238.310547 62.156 -6.7744
10312.501953 62.231 15.6841
10387.230469 62.142 25.6152
10462.500977 62.315 30.8174
10538.316406 62.935 40.4597
10614.681641 63.521 40.1223
10691.599609 63.873 47.5544
10769.075195 64.333 5.1438
10847.112305 64.908 -58.0110
10925.714844 65.308 -49.3667
11004.886719 65.418 -41.4639
11084.632812 65.739 -23.0286
11164.957031 66.416 168.4229
11245.863281 67.053 93.9905
11327.355469 67.389 68.7158
11409.438477 67.352 43.7551
11492.116211 66.946 14.7246
11575.392578 66.232 -115.4771
11659.272461 65.365 -177.5623
11743.760742 64.434 151.1409
11828.861328 63.584 153.4534
11914.578125 62.868 177.3428
12000.916016 62.434 163.2068
12087.879883 62.324 157.9390
12175.473633 62.121 153.0510
12263.702148 61.583 140.0764
12352.570312 61.013 119.7859
12442.082031 60.963 89.7043
12532.242188 61.198 55.4111
12623.055664 61.041 66.9771
12714.527344 60.325 -177.6445
12806.662109 59.386 -179.8726
12899.464844 58.632 -163.6733
12992.939453 58.297 -157.6746
13087.091797 58.484 -166.2559
13181.925781 58.993 -163.5098
13277.447266 59.265 -168.9224
13373.661133 59.159 175.0078
13470.572266 58.798 157.6831
13568.185547 58.418 142.8320
13666.505859 58.217 -68.9910
13765.539062 58.285 -93.2466
13865.290039 58.563 -128.5706
13965.763672 58.886 -139.7891
14066.965820 59.082 -140.9070
14168.900391 59.229 -152.5759
14271.574219 59.702 179.7244
14374.992188 60.565 -89.9836
14479.159180 61.343 -30.8650
14584.081055 61.495 -16.8989
14689.763672 61.127 -18.6797
14796.211914 60.452 -36.3047
14903.431641 59.608 -82.5515
15011.427734 58.783 -112.7515
15120.207031 58.230 -117.0686
15229.774414 58.224 -98.3650
15340.135742 58.520 -63.3550
15451.296875 58.764 -34.0820
15563.263672 58.809 -24.5034
15676.041016 58.816 -20.4014
15789.635742 58.764 -19.1484
15904.053711 58.646 -40.9570
16019.300781 58.525 -101.1372
16135.382812 58.364 -28.5569
16252.306641 58.212 -7.5232
16370.077148 58.177 -32.8274
16488.701172 58.153 -48.8088
16608.185547 58.134 134.2773
16728.535156 58.062 96.9697
16849.757812 57.866 56.2310
16971.857422 57.605 29.3425
17094.841797 57.580 36.4131
17218.718750 57.613 37.4309
17343.492188 57.471 22.7122
17469.169922 57.330 -1.9399
17595.757812 57.570 -17.7458
17723.263672 57.942 -12.2097
17851.693359 58.195 115.7754
17981.054688 58.278 117.0176
18111.353516 58.086 109.3188
18242.595703 57.674 101.0513
18374.789062 57.136 52.3228
18507.939453 56.668 56.8340
18642.054688 56.616 37.9265
18777.142578 57.180 27.9358
18913.208984 58.187 110.8354
19050.261719 59.111 145.6436
19188.308594 59.147 172.5859
19327.355469 58.720 -87.1418
19467.410156 59.071 -107.6130
19608.478516 59.875 -23.0234
19750.570312 61.857 -3.0459
19893.691406 64.397 -17.8352
20037.849609 0.000 -74.2317
