* Measurement data measured by REW V5.30.2
* Source: EXCL: Microphone (Umik-1  Gain: 18dB), MICROPHONE (Master Volume), L, volume: 0.540
* Format: 256k Log Swept Sine, 1 sweep at -20.0 dBFS with no timing reference
* Dated: Jan 11, 2024 5:58:24 PM
* REW Settings:
*  C-weighting compensation: Off
*  Target level: 75.0 dB
* Note: measured 0.5 m away from mic; "best" fan deemed by joah
* Measurement: Fan 9
* Smoothing: 1/48 octave
* Frequency Step: 96 ppo
* Start Frequency: 20.141602 Hz
*
* Freq(Hz) SPL(dB) Phase(degrees)
20.141602 42.673 -115.7966
20.287556 43.958 -120.6594
20.434568 45.463 -130.6847
20.582645 46.961 -140.4883
20.731796 48.379 -150.4747
20.882027 49.608 -158.2797
21.033346 50.592 -164.6386
21.185762 51.354 -170.0330
21.339283 51.904 -174.1968
21.493916 52.254 -177.8204
21.649670 52.461 178.8969
21.806553 52.539 175.8796
21.964573 52.533 172.6045
22.123737 52.478 168.8047
22.284056 52.393 164.3375
22.445536 52.320 158.7614
22.608185 52.267 152.0829
22.772013 52.257 144.4759
22.937029 52.297 135.7601
23.103241 52.355 126.7220
23.270657 52.420 117.0829
23.439285 52.436 107.3861
23.609137 52.358 97.3182
23.780218 52.172 86.6782
23.952539 51.849 75.0767
24.126110 51.453 61.5953
24.300938 51.098 45.9890
24.477032 50.886 27.4458
24.654402 51.030 8.0546
24.833057 51.496 -11.0520
25.013008 52.125 -26.7982
25.194263 52.807 -40.0922
25.376831 53.297 -50.2327
25.560722 53.533 -58.8823
25.745945 53.417 -65.5698
25.932510 52.910 -71.3718
26.120428 51.939 -75.5834
26.309708 50.455 -78.4695
26.500359 48.324 -78.6893
26.692390 45.686 -73.6688
26.885815 42.978 -57.8990
27.080641 40.757 -25.2180
27.276878 39.991 -2.2832
27.474539 39.850 4.5163
27.673630 39.146 -3.9247
27.874165 39.236 -37.0316
28.076153 40.989 -108.5244
28.279604 43.461 -135.6968
28.484529 46.005 -147.5943
28.690941 47.834 -154.4253
28.898848 48.944 -158.3963
29.108261 49.517 -160.0615
29.319191 49.727 -160.4189
29.531651 49.774 -157.8181
29.745649 49.939 -154.0490
29.961199 50.349 -149.7834
30.178310 50.953 -148.0392
30.396996 51.598 -148.7475
30.617264 52.064 -152.6301
30.839128 52.222 -158.2481
31.062601 51.986 -165.9550
31.287693 51.259 -174.1775
31.514416 49.952 176.5144
31.742783 47.941 166.5939
31.972803 45.144 154.9998
32.204491 41.984 132.2220
32.437859 40.256 14.4241
32.672916 40.178 -14.3792
32.909679 41.054 -17.3302
33.148155 42.078 -6.1464
33.388359 43.715 10.3485
33.630306 46.075 22.6395
33.874004 48.189 23.3118
34.119469 49.747 17.5639
34.366711 50.603 5.5009
34.615746 50.974 -12.7681
34.866585 51.240 -38.7693
35.119244 51.772 -73.2254
35.373734 52.719 -105.7209
35.630066 53.711 -130.5103
35.888256 54.403 -150.2537
36.148315 54.514 -166.7281
36.410259 53.931 178.9788
36.674103 52.565 165.1143
36.939857 50.334 151.6147
37.207539 47.205 140.5927
37.477161 44.380 149.0677
37.748737 43.401 -94.9928
38.022282 44.556 -108.0104
38.297806 45.643 -126.6121
38.575329 46.108 -146.3931
38.854862 45.880 -165.8730
39.136421 44.934 177.9546
39.420021 43.171 169.1965
39.705673 41.030 173.1051
39.993397 39.760 -161.7268
40.283207 40.395 -139.4758
40.575115 41.279 -136.1028
40.869141 41.176 -138.4354
41.165295 39.886 -138.5286
41.463596 38.360 -122.3380
41.764057 38.416 -76.3967
42.066696 40.360 -63.3032
42.371529 41.929 -71.1996
42.678570 42.556 -86.5023
42.987835 42.307 -107.8447
43.299343 41.515 -138.4808
43.613110 40.676 177.3881
43.929150 40.219 132.5251
44.247478 39.864 104.1995
44.568115 39.162 92.2980
44.891075 38.850 101.8125
45.216373 40.270 133.3174
45.544029 42.802 149.0024
45.874062 44.886 149.4799
46.206486 45.886 145.0964
46.541317 45.748 140.0234
46.878574 44.471 137.2058
47.218277 42.198 143.2153
47.560440 40.021 -176.6914
47.905083 39.702 -128.3649
48.252224 40.151 -117.8527
48.601879 39.733 -117.1540
48.954067 38.014 -117.3337
49.308807 36.062 -100.6214
49.666119 35.985 41.5946
50.026020 37.243 48.8341
50.388531 38.136 56.6679
50.753666 38.543 71.3558
51.121449 39.035 91.8568
51.491894 39.775 108.9806
51.865025 40.408 117.4676
52.240860 40.579 118.3157
52.619419 40.160 112.7120
53.000721 39.165 101.2197
53.384785 37.651 86.1631
53.771633 35.716 75.3722
54.161285 34.190 88.7301
54.553761 34.870 132.4696
54.949081 36.695 146.4406
55.347263 37.672 149.0095
55.748333 37.702 159.4065
56.152309 38.225 -163.5555
56.559212 39.936 -138.7057
56.969063 41.377 -141.0143
57.381886 41.793 -156.7833
57.797699 42.086 160.1741
58.216526 43.597 40.3124
58.638386 45.715 1.0554
59.063305 47.280 -26.4410
59.491302 47.916 -52.2337
59.922401 47.558 -76.4327
60.356625 46.137 -98.0315
60.793995 43.563 -116.2003
61.234531 39.920 -129.9954
61.678261 36.081 -173.8987
62.125206 34.838 104.0774
62.575390 37.087 130.9944
63.028835 39.486 128.7271
63.485569 40.485 119.2476
63.945610 39.880 106.6530
64.408989 37.786 89.9595
64.875725 34.587 55.5481
65.345840 31.172 -38.8427
65.819366 29.075 -83.5414
66.296318 30.182 -143.5776
66.776726 33.542 157.3950
67.260620 36.681 136.2975
67.748016 38.655 121.6932
68.238945 39.240 107.8506
68.733429 38.364 95.1624
69.231499 36.069 88.0066
69.733177 32.853 99.4535
70.238495 30.362 120.8229
70.747475 30.469 110.7760
71.260139 33.374 106.4834
71.776520 37.485 126.6888
72.296638 41.062 128.7400
72.820526 43.292 122.1658
73.348213 43.930 116.2278
73.879723 43.046 116.4075
74.415085 41.266 129.9622
74.954330 40.358 166.5186
75.497482 42.144 -87.0297
76.044571 45.034 -64.7009
76.595619 46.924 -69.5508
77.150665 47.204 -82.3051
77.709732 45.948 -101.8137
78.272850 43.806 -161.6052
78.840050 41.937 101.9585
79.411354 40.446 87.8032
79.986801 38.908 98.9763
80.566422 38.002 129.3456
81.150238 38.498 164.1477
81.738289 40.381 -174.0623
82.330597 42.338 179.7018
82.927200 43.278 157.7544
83.528122 43.070 130.4921
84.133400 42.408 92.2240
84.743065 42.540 -82.7377
85.357147 42.954 -105.6229
85.975677 42.383 -123.6665
86.598694 40.907 -138.5492
87.226227 39.819 -147.0297
87.858307 39.793 -147.4092
88.494965 39.696 -137.6173
89.136238 39.144 -109.8744
89.782158 38.379 -79.8458
90.432755 37.311 -54.1910
91.088066 37.345 7.9644
91.748131 39.627 -0.5121
92.412979 42.732 -22.6443
93.082642 45.722 -12.6637
93.757156 48.513 23.9823
94.436562 50.809 54.8334
95.120888 52.121 72.4534
95.810173 52.215 82.2734
96.504456 51.149 81.3617
97.203766 49.593 49.0760
97.908142 48.720 -19.4753
98.617622 48.336 -57.0114
99.332245 47.775 -118.3409
100.052048 47.310 170.1307
100.777069 47.196 70.8884
101.507339 47.520 -24.7297
102.242905 47.218 -38.5385
102.983795 45.807 -55.8269
103.730057 44.887 -165.0005
104.481728 45.351 -172.7310
105.238846 45.386 -166.9922
106.001450 44.068 -164.5073
106.769577 42.116 8.6482
107.543274 40.395 2.4167
108.322578 38.207 -16.2274
109.107529 35.375 -39.2400
109.898170 33.718 -17.2205
110.694534 35.083 104.1659
111.496674 38.265 152.5721
112.304626 42.169 178.7239
113.118431 46.133 159.7638
113.938133 49.162 115.4836
114.763779 50.568 97.8312
115.595406 50.236 103.0300
116.433060 49.202 167.6089
117.276779 48.668 -136.8507
118.126617 49.044 -108.7793
118.982613 49.993 156.8297
119.844810 50.714 85.4800
120.713257 50.197 71.6338
121.587997 48.634 -87.5879
122.469070 47.140 -100.2847
123.356529 45.841 -89.4478
124.250420 44.085 -77.5940
125.150787 42.188 38.5505
126.057678 40.936 35.0181
126.971146 39.863 11.0829
127.891228 38.659 29.2632
128.817978 38.188 122.0872
129.751450 38.839 127.2830
130.691681 40.223 2.3268
131.638733 41.124 -18.3354
132.592636 40.789 -74.5642
133.553452 39.803 -162.0005
134.521240 38.694 -141.3584
135.496033 38.082 -153.9163
136.477890 38.574 144.6606
137.466858 39.286 165.9521
138.462997 38.929 -167.9951
139.466354 37.651 -121.7859
140.476990 36.953 154.7556
141.494949 38.100 127.2368
142.520279 40.651 122.4180
143.553040 43.065 113.8618
144.593277 44.385 112.0862
145.641052 45.479 132.5283
146.696426 47.230 142.3091
147.759445 48.375 121.2744
148.830170 47.821 97.0669
149.908661 45.752 71.3975
150.994965 43.636 49.2239
152.089142 42.314 33.8933
153.191238 41.013 27.2825
154.301331 40.184 54.5835
155.419464 39.795 77.8049
156.545700 39.147 94.2268
157.680099 39.067 -35.4731
158.822708 39.863 -42.0513
159.973602 40.727 -30.0894
161.132843 40.947 -29.7307
162.300476 40.540 -60.8481
163.476578 41.234 -120.4507
164.661194 43.261 64.0615
165.854401 44.680 32.4333
167.056244 44.720 5.7517
168.266800 44.321 9.5664
169.486130 44.273 46.8110
170.714294 44.188 105.3486
171.951355 43.704 134.5806
173.197388 42.976 116.6262
174.452454 43.197 61.9387
175.716614 44.738 69.8796
176.989929 46.190 34.4924
178.272476 46.852 18.2185
179.564316 47.069 16.5959
180.865509 46.685 -9.4880
182.176132 45.321 -32.2971
183.496262 43.792 -29.6047
184.825958 43.864 -30.0637
186.165283 45.285 -47.5312
187.514313 46.601 -53.1135
188.873123 47.492 -44.4443
190.241776 47.677 -41.0669
191.620346 47.705 -19.9666
193.008911 48.403 -11.6433
194.407532 48.813 -23.8201
195.816284 48.583 -27.7166
197.235245 48.608 -34.1951
198.664490 48.836 -54.4849
200.104095 48.673 -59.7744
201.554138 48.061 -45.2185
203.014679 47.506 -33.8318
204.485809 47.392 -41.1235
205.967590 47.065 -44.8113
207.460114 45.915 -39.1619
208.963455 44.581 -55.4780
210.477692 44.286 -68.2236
212.002899 44.541 -44.3674
213.539154 44.403 -32.9451
215.086548 43.669 -83.1130
216.645157 43.155 -91.8455
218.215057 43.579 -63.6067
219.796341 44.213 -48.1040
221.389069 44.254 -32.1343
222.993347 43.525 -95.6208
224.609253 42.374 -91.2915
226.236862 41.618 -48.1653
227.876266 41.913 17.8521
229.527557 42.858 -12.0911
231.190811 43.877 -24.9731
232.866119 44.322 -28.2354
234.553558 44.475 -13.8311
236.253235 45.644 13.0471
237.965225 47.482 12.8308
239.689621 49.196 -35.6304
241.426514 50.265 -47.5269
243.175995 50.464 -44.3528
244.938141 50.073 -52.8381
246.713058 49.573 -72.3208
248.500839 49.658 -87.8845
250.301575 50.568 -104.8933
252.115356 51.495 -124.5640
253.942291 51.547 -123.9148
255.782455 51.355 -94.6221
257.635956 51.223 -96.0864
259.502899 50.690 -100.4973
261.383362 49.971 -80.8923
263.277466 49.358 -90.3733
265.185272 48.652 -108.5913
267.106903 48.288 -134.8152
269.042480 49.073 -124.1531
270.992065 50.223 -114.8635
272.955780 50.102 -118.7495
274.933716 48.850 -130.7810
276.925995 48.085 -136.0012
278.932709 48.716 -101.5750
280.953979 49.658 -98.1853
282.989899 49.709 -116.5264
285.040558 48.998 -104.8374
287.106079 49.232 -80.2502
289.186554 51.093 -70.4871
291.282104 52.689 -32.7322
293.392853 52.719 -24.3284
295.518890 51.175 -68.4817
297.660339 49.399 -93.9275
299.817322 48.973 -112.3242
301.989929 49.886 -118.4944
304.178284 51.373 -112.0955
306.382477 52.794 -105.1350
308.602661 53.231 -112.0117
310.838928 52.160 -126.6104
313.091400 50.267 -121.2908
315.360199 49.001 -139.2156
317.645416 48.687 -148.2551
319.947205 48.812 -144.6667
322.265686 49.180 -151.0720
324.600952 49.967 -119.2180
326.953156 50.862 -86.5337
329.322388 52.201 -102.2234
331.708801 54.299 -132.7993
334.112488 56.236 -144.0361
336.533600 57.262 -139.2029
338.972260 57.072 -128.9458
341.428589 56.136 -134.6531
343.902710 55.359 -139.0198
346.394775 55.495 -134.5010
348.904907 56.144 -142.7976
351.433228 56.047 -169.8091
353.979858 54.948 176.6279
356.544952 54.246 174.4526
359.128632 54.155 171.1326
361.731018 53.938 168.5168
364.352264 53.484 154.5417
366.992523 52.662 49.8335
369.651917 51.579 -8.4109
372.330566 50.659 -94.1392
375.028625 50.379 -138.9365
377.746246 51.343 -150.1404
380.483551 53.176 -154.6929
383.240692 54.557 -170.6216
386.017822 54.517 -155.9053
388.815063 53.765 -153.2112
391.632568 53.904 -171.0774
394.470490 54.494 -162.2275
397.328979 54.501 -148.6404
400.208191 53.807 -123.7957
403.108276 52.932 -129.3264
406.029358 52.877 -140.4033
408.971619 53.950 -112.4194
411.935181 55.277 -143.2063
414.920227 55.969 -177.7446
417.926910 55.839 150.8857
420.955383 55.312 140.3669
424.005798 55.126 151.8337
427.078308 55.955 -166.2998
430.173096 57.102 -155.8733
433.290314 57.201 -174.4348
436.430115 56.256 155.9468
439.592682 55.772 175.2686
442.778137 56.057 -178.7891
445.986694 56.045 177.2922
449.218506 55.439 170.1069
452.473724 55.047 169.9626
455.752533 55.160 170.3372
459.055115 55.828 153.1926
462.381622 56.746 138.8740
465.732239 57.158 141.6958
469.107117 56.535 137.3745
472.506470 55.197 135.3401
475.930450 54.422 139.5327
479.379242 54.995 126.6919
482.853027 55.755 133.5725
486.351990 55.692 150.7573
489.876282 55.542 155.1284
493.426117 56.142 149.4646
497.001678 57.289 147.4285
500.603149 57.970 156.9995
504.230713 57.619 -170.0303
507.884583 57.306 -151.8264
511.564911 58.337 -155.2595
515.271912 59.628 -165.5298
519.005798 60.071 -179.7720
522.766724 59.736 -172.6770
526.554932 59.439 -178.0920
530.370544 60.171 151.2458
534.213806 60.890 142.0569
538.084961 60.368 143.7842
541.984131 59.098 148.5945
545.911560 58.257 153.1892
549.867432 58.002 153.7783
553.851990 57.838 158.5940
557.865417 57.889 152.7092
561.907959 57.614 153.1411
565.979797 56.376 155.3132
570.081116 55.005 142.3398
574.212158 54.384 140.9141
578.373108 54.122 152.9163
582.564209 54.228 141.0562
586.785706 54.676 108.9241
591.037781 55.117 100.2070
595.320679 55.801 120.2583
599.634644 56.909 174.7913
603.979858 57.959 175.9058
608.356567 58.797 156.6157
612.764954 59.555 146.9548
617.205322 60.040 143.1384
621.677856 60.048 122.9570
626.182800 59.826 100.7520
630.720398 59.308 76.3271
635.290833 58.341 63.1306
639.894409 57.350 72.5168
644.531372 56.803 71.4163
649.201904 56.102 67.1609
653.906311 55.087 73.4309
658.644775 54.553 102.1631
663.417603 54.719 110.1169
668.224976 55.416 109.5474
673.067200 56.250 124.2051
677.944519 56.603 126.1592
682.857178 57.157 126.0281
687.805420 58.501 142.6436
692.789551 59.443 151.2773
697.809814 59.215 141.3013
702.866455 58.527 102.7263
707.959717 58.408 87.9165
713.089905 58.603 99.5862
718.257263 58.540 98.6133
723.462036 57.923 91.1003
728.704529 56.966 87.1069
733.985046 56.503 101.5808
739.303833 57.274 103.3743
744.661133 58.213 90.7056
750.057251 58.624 77.1155
755.492493 58.601 68.5571
760.967102 58.642 58.9790
766.481384 58.766 67.4453
772.035645 58.875 95.1077
777.630127 59.176 99.9658
783.265137 59.530 96.5327
788.940979 59.558 89.9973
794.657959 59.159 86.2986
800.416382 58.507 77.1611
806.216553 57.698 53.1340
812.058716 56.873 48.4744
817.943237 55.904 41.5559
823.870361 55.310 46.3086
829.840454 56.093 55.2195
835.853821 57.660 62.6025
841.910767 58.839 89.0481
848.011597 59.303 86.9753
854.156616 58.776 76.5349
860.346191 57.231 64.4836
866.580627 55.911 41.4739
872.860229 55.783 44.1648
879.185364 55.829 97.6326
885.556274 55.505 124.8411
891.973389 55.726 117.3235
898.437012 56.435 106.2852
904.947449 56.587 118.0952
911.505066 56.213 122.5825
918.110229 55.690 111.0220
924.763245 55.126 97.1299
931.464478 54.969 94.1216
938.214233 56.061 117.6416
945.012939 57.414 123.8408
951.860901 58.151 119.6030
958.758484 57.847 101.5261
965.706055 56.536 86.9414
972.703979 55.363 114.0696
979.752563 55.605 139.0068
986.852234 56.595 141.2883
994.003357 57.520 133.0190
1001.206299 58.006 128.3359
1008.461426 58.312 126.6323
1015.769165 58.753 122.6287
1023.129822 58.923 107.7336
1030.543823 58.505 95.7581
1038.011597 57.484 94.2515
1045.533447 56.672 110.5044
1053.109863 56.463 123.2747
1060.741089 56.943 124.2095
1068.427612 58.012 119.3777
1076.169922 58.635 111.3242
1083.968262 58.783 111.1123
1091.823120 58.741 110.3518
1099.734863 58.644 105.6909
1107.703979 58.585 107.3057
1115.730835 58.314 103.7864
1123.815918 58.565 99.5999
1131.959595 59.528 103.1599
1140.162231 60.358 98.9058
1148.424316 61.002 93.9460
1156.746216 61.426 88.0737
1165.128418 61.325 80.0813
1173.571411 60.752 76.9922
1182.075562 60.327 80.5989
1190.641357 60.457 90.1785
1199.269287 60.749 91.9966
1207.959717 60.762 88.3250
1216.713135 60.575 87.2686
1225.529907 60.801 86.8604
1234.410645 61.144 78.9888
1243.355713 61.271 69.3867
1252.365601 61.450 60.1052
1261.440796 61.283 51.3938
1270.581665 61.188 53.0703
1279.788818 61.842 59.9946
1289.062744 61.844 48.9543
1298.403809 60.811 49.4797
1307.812622 59.951 47.0156
1317.289551 59.369 33.2314
1326.835205 59.399 27.2642
1336.449951 60.059 49.1582
1346.134399 60.973 65.7393
1355.889038 61.593 61.1877
1365.714355 61.564 49.8877
1375.610840 61.342 31.9341
1385.579102 60.775 26.2253
1395.619629 59.911 68.8018
1405.732910 59.483 75.6094
1415.919434 59.278 48.3904
1426.179810 59.165 44.4465
1436.514526 59.494 49.7344
1446.924072 60.360 43.4731
1457.409058 60.911 40.6755
1467.970093 60.810 52.2324
1478.607666 60.816 67.9861
1489.322266 61.626 75.9233
1500.114502 63.066 96.8872
1510.984985 64.498 74.6375
1521.934204 65.812 21.4355
1532.962769 66.650 2.5945
1544.071289 66.219 8.6218
1555.260254 64.916 22.0818
1566.530273 63.790 39.9575
1577.881958 64.462 57.3418
1589.315918 66.150 59.1738
1600.832764 66.749 54.1655
1612.433105 65.906 28.8037
1624.117432 64.880 42.7939
1635.886475 64.857 69.4080
1647.740723 65.482 58.4426
1659.680908 65.540 51.1609
1671.707642 64.802 56.3022
1683.821533 64.611 47.9907
1696.023193 64.800 29.0322
1708.313232 64.459 12.0813
1720.692383 63.704 20.4231
1733.161255 63.276 21.3613
1745.720459 63.603 23.6702
1758.370728 63.908 34.6360
1771.112549 63.728 28.1978
1783.946777 63.513 13.8428
1796.874023 63.093 4.4421
1809.894897 62.307 18.5432
1823.010132 62.053 50.6033
1836.220459 62.698 35.6794
1849.526489 63.460 21.9504
1862.928955 63.697 20.0791
1876.428467 63.488 25.5383
1890.025879 63.092 27.3140
1903.721802 62.871 54.2944
1917.516968 63.254 76.4722
1931.412109 63.926 65.1841
1945.407959 64.354 54.9348
1959.505127 64.949 23.6741
1973.704468 66.033 -9.8523
1988.006714 66.534 -27.7759
2002.412598 65.432 -13.8081
2016.922852 64.091 35.1270
2031.538330 64.169 50.4509
2046.259644 64.616 69.6326
2061.087646 64.319 68.3003
2076.023193 63.495 53.9473
2091.066895 63.076 63.1172
2106.219727 63.063 56.6550
2121.482178 62.562 41.0676
2136.855225 61.452 25.1714
2152.339844 61.221 12.2664
2167.936523 62.036 34.7290
2183.646240 62.594 68.5232
2199.469727 62.575 56.7041
2215.407959 62.459 33.7837
2231.461670 62.535 13.2368
2247.631836 62.577 27.1179
2263.919189 62.343 47.7695
2280.324463 62.224 38.0010
2296.848633 62.288 22.1223
2313.492432 62.266 15.5559
2330.256836 62.249 19.8040
2347.142822 62.438 26.1641
2364.151123 63.081 76.6519
2381.282715 63.771 81.6357
2398.538574 64.036 56.6724
2415.919434 64.550 23.3347
2433.426270 65.046 10.0781
2451.059814 65.269 9.9502
2468.821289 65.486 8.9041
2486.711426 65.594 4.1738
2504.731201 65.827 7.5515
2522.881592 66.569 15.5293
2541.163330 67.123 22.0684
2559.577637 67.383 13.5081
2578.125488 67.660 7.6885
2596.807617 67.564 15.9534
2615.625244 67.073 19.6011
2634.579102 66.836 16.5386
2653.670410 67.335 29.4675
2672.899902 67.587 27.6057
2692.268799 67.069 9.5229
2711.778076 66.325 15.1426
2731.428711 66.166 15.7339
2751.221680 66.393 6.9021
2771.158203 66.004 -5.1394
2791.239258 65.105 24.0159
2811.465820 64.608 8.1758
2831.838867 64.857 -27.3096
2852.359619 65.488 -33.0291
2873.029053 65.349 -0.0408
2893.848145 64.449 43.7529
2914.818115 64.449 45.8284
2935.940186 65.479 33.5654
2957.215332 65.673 21.2073
2978.644531 65.080 32.7849
3000.229004 64.676 39.5327
3021.969971 64.424 47.7666
3043.868408 64.380 51.4312
3065.925537 64.093 54.6897
3088.142578 63.791 47.1602
3110.520508 64.120 37.6094
3133.060547 64.418 24.9370
3155.763916 64.114 13.5000
3178.631836 63.947 7.4624
3201.665527 63.894 4.1184
3224.866211 63.650 7.4585
3248.234863 63.863 14.7827
3271.772949 64.482 8.2427
3295.481445 64.947 -6.7866
3319.361816 64.993 -4.2246
3343.415283 64.828 6.7004
3367.643066 64.532 -1.7302
3392.046387 64.254 -1.3921
3416.626465 64.880 4.4856
3441.384766 65.838 -12.3528
3466.322510 66.160 -32.0017
3491.440918 66.151 -17.3674
3516.741455 66.329 -4.0461
3542.225098 66.609 -5.9878
3567.893555 66.646 -5.2061
3593.748047 66.719 -1.0261
3619.789795 66.883 -7.1660
3646.020264 67.123 -22.3103
3672.440918 67.744 -25.4844
3699.052979 68.751 -19.3550
3725.857910 69.992 -20.1865
3752.856934 71.239 -22.3215
3780.051758 72.085 -27.0662
3807.443604 72.506 -50.5435
3835.033936 73.026 -33.1106
3862.824219 73.381 -4.1013
3890.815918 73.492 -3.2957
3919.010254 74.208 -5.9553
3947.408936 75.917 24.7969
3976.013428 76.874 33.9600
4004.825195 75.750 19.1409
4033.845703 73.876 -8.1504
4063.076660 73.019 -36.2339
4092.519287 73.295 -52.9858
4122.175293 73.900 -49.5437
4152.046387 74.013 -8.9739
4182.133789 73.489 -33.0757
4212.439453 72.969 -159.3901
4242.964355 72.283 -142.0051
4273.710449 71.606 -102.9607
4304.679688 71.446 -23.4854
4335.873047 71.261 64.7844
4367.292480 70.350 99.1663
4398.939453 69.200 109.4524
4430.815918 68.237 -178.3384
4462.923340 67.350 126.2388
4495.263672 66.215 86.2676
4527.838379 64.952 54.6536
4560.648926 63.940 35.9546
4593.697266 63.128 28.9243
4626.984863 62.359 17.6494
4660.513672 62.023 2.6741
4694.285645 61.960 -11.5896
4728.302246 62.060 -24.6938
4762.565430 62.486 -36.2319
4797.077148 62.911 -46.8518
4831.838867 62.913 -61.1182
4866.852539 62.742 -64.5967
4902.119629 63.155 -52.7861
4937.642578 63.665 -52.2227
4973.422852 64.003 -53.4482
5009.462402 64.259 -48.5198
5045.763184 64.632 -60.3093
5082.326660 65.105 -69.9438
5119.155273 65.857 -77.0476
5156.250977 66.569 -120.4600
5193.615234 66.853 -157.9238
5231.250488 67.023 -158.1282
5269.158203 67.116 155.6677
5307.340820 67.429 124.9763
5345.799805 68.331 124.5552
5384.537598 69.692 116.3459
5423.556152 71.005 32.0515
5462.857422 72.071 32.4607
5502.443359 73.232 43.1401
5542.316406 74.429 0.2019
5582.478516 75.437 -24.4641
5622.931641 75.775 -37.2942
5663.677734 75.089 -85.2473
5704.719238 73.456 -102.4851
5746.058105 71.399 -114.0466
5787.696289 69.735 -126.9424
5829.636230 68.896 153.8533
5871.880371 68.526 127.5120
5914.430664 68.301 39.0576
5957.289062 67.924 21.7090
6000.458008 67.184 55.5425
6043.939941 66.422 75.2400
6087.736816 65.858 71.9751
6131.851074 65.549 52.9392
6176.285156 65.461 43.5137
6221.041016 65.137 38.8789
6266.121094 64.738 10.2544
6311.527832 64.974 -31.5361
6357.263672 65.595 -58.8931
6403.331055 65.902 -55.2842
6449.732422 65.677 -53.3955
6496.469727 64.753 146.9067
6543.545898 63.652 120.6631
6590.962891 62.727 113.8921
6638.723633 61.853 76.0044
6686.830566 60.867 81.7935
6735.286133 60.127 101.6128
6784.092773 60.344 108.3223
6833.252930 61.115 94.7539
6882.769531 62.001 68.1929
6932.645020 62.965 44.1772
6982.881836 63.733 34.0220
7033.482910 64.617 32.0234
7084.450195 65.430 44.5361
7135.787109 65.931 61.9346
7187.496094 66.515 65.0474
7239.579590 67.269 56.4688
7292.040527 67.855 38.3379
7344.881836 68.128 25.1606
7398.105957 67.835 13.8081
7451.715820 67.102 14.2988
7505.713867 66.272 14.5791
7560.103516 65.611 15.3423
7614.887207 65.234 16.2148
7670.067871 64.805 7.4751
7725.648438 63.975 -0.9663
7781.631836 62.918 1.3091
7838.020508 62.051 12.7920
7894.817871 61.585 20.0728
7952.026855 61.368 19.7822
8009.650391 61.378 16.2920
8067.691406 61.517 4.2139
8126.153320 61.595 -8.9756
8185.038574 61.698 -16.3965
8244.350586 61.871 -21.5024
8304.092773 62.064 -26.7856
8364.267578 62.440 -34.5171
8424.878906 62.852 -37.1411
8485.928711 63.080 -35.1074
8547.420898 63.314 -31.6162
8609.359375 63.805 -32.7964
8671.746094 64.529 -21.5366
8734.584961 65.188 -2.5312
8797.878906 65.600 8.4819
8861.631836 65.885 4.1172
8925.846680 66.301 -1.8979
8990.527344 66.587 -7.4917
9055.676758 66.666 -24.8271
9121.297852 66.487 -87.5083
9187.394531 66.085 129.1729
9253.969727 65.599 61.5410
9321.027344 65.073 17.7373
9388.571289 64.460 4.9360
9456.604492 64.021 10.5415
9525.130859 64.333 19.0396
9594.154297 65.234 -0.9512
9663.677734 66.144 -9.2417
9733.705078 67.152 -0.8945
9804.239258 68.357 17.2246
9875.285156 69.498 29.0522
9946.845703 70.432 23.3242
10018.924805 70.687 -10.6851
10091.526367 70.122 -27.2002
10164.653320 69.001 -19.9849
10238.310547 67.769 -20.4126
10312.501953 66.641 -55.2700
10387.230469 65.702 -108.1362
10462.500977 64.957 162.0933
10538.316406 64.289 91.5864
10614.681641 63.841 33.5308
10691.599609 63.562 12.4282
10769.075195 63.171 2.4028
10847.112305 62.771 4.5078
10925.714844 62.430 24.1353
11004.886719 62.325 19.8511
11084.632812 62.783 1.3560
11164.957031 63.775 -18.0366
11245.863281 64.512 -27.0684
11327.355469 64.932 -33.1812
11409.438477 65.418 12.3262
11492.116211 65.762 21.1489
11575.392578 65.645 36.7773
11659.272461 65.126 26.8110
11743.760742 64.581 -14.8667
11828.861328 64.220 -22.1562
11914.578125 63.976 -6.3730
12000.916016 63.672 1.6699
12087.879883 63.473 -27.7871
12175.473633 63.369 -40.0942
12263.702148 63.028 -51.4297
12352.570312 62.584 -46.8970
12442.082031 62.515 13.4155
12532.242188 62.592 3.8247
12623.055664 62.174 -21.8950
12714.527344 61.396 -0.3052
12806.662109 60.734 23.4458
12899.464844 60.340 1.1460
12992.939453 60.021 -28.4731
13087.091797 59.751 -79.7319
13181.925781 59.718 -73.9185
13277.447266 59.816 -2.1143
13373.661133 59.786 35.6743
13470.572266 59.612 11.7715
13568.185547 59.271 -22.0088
13666.505859 58.798 -37.9702
13765.539062 58.303 -39.8711
13865.290039 57.900 -45.2114
13965.763672 57.726 4.4316
14066.965820 57.761 3.1846
14168.900391 58.034 -8.7671
14271.574219 58.699 -42.8506
14374.992188 59.716 -63.0586
14479.159180 60.440 -55.4165
14584.081055 60.586 45.0518
14689.763672 60.580 121.1372
14796.211914 60.556 -111.3926
14903.431641 60.239 -76.1562
15011.427734 59.556 -58.0205
15120.207031 58.816 9.6978
15229.774414 58.467 28.6670
15340.135742 58.547 -35.0771
15451.296875 58.716 -62.8525
15563.263672 58.728 -85.9131
15676.041016 58.810 -107.8647
15789.635742 58.871 -83.7578
15904.053711 58.623 14.3911
16019.300781 58.025 -22.4663
16135.382812 57.230 -118.2432
16252.306641 56.486 -135.0747
16370.077148 55.909 -123.3130
16488.701172 55.497 -99.1992
16608.185547 55.394 45.4336
16728.535156 55.782 58.6396
16849.757812 56.257 -48.6426
16971.857422 56.478 -50.2612
17094.841797 56.570 13.0962
17218.718750 56.646 -3.9312
17343.492188 56.738 -48.0029
17469.169922 56.883 -80.6865
17595.757812 57.008 -49.7769
17723.263672 57.058 -37.5742
17851.693359 57.171 -58.4048
17981.054688 57.413 -79.2510
18111.353516 57.726 -60.4746
18242.595703 57.600 -24.9141
18374.789062 56.775 -34.9150
18507.939453 55.765 -49.6289
18642.054688 55.230 -66.9150
18777.142578 55.471 39.7017
18913.208984 56.668 17.7095
19050.261719 58.196 4.7842
19188.308594 58.803 -5.7905
19327.355469 58.869 -110.5176
19467.410156 59.355 -177.9585
19608.478516 59.849 34.7910
19750.570312 61.344 -4.1748
19893.691406 63.568 -16.1016
20037.849609 0.000 9.8839
