* Measurement data measured by REW V5.30.2
* Source: EXCL: Microphone (Umik-1  Gain: 18dB), MICROPHONE (Master Volume), L, volume: 0.540
* Format: 256k Log Swept Sine, 1 sweep at -20.0 dBFS with no timing reference
* Dated: Jan 11, 2024 5:53:19 PM
* REW Settings:
*  C-weighting compensation: Off
*  Target level: 75.0 dB
* Note: measured 0.5 m away from mic; 
* Measurement: Fan 7
* Smoothing: 1/48 octave
* Frequency Step: 96 ppo
* Start Frequency: 20.141602 Hz
*
* Freq(Hz) SPL(dB) Phase(degrees)
20.141602 56.824 -175.3851
20.287556 56.324 -179.1887
20.434568 55.654 175.7672
20.582645 54.651 171.1439
20.731796 53.067 165.4989
20.882027 50.849 159.2968
21.033346 47.662 153.5677
21.185762 44.388 145.9212
21.339283 43.114 -22.3195
21.493916 44.093 -47.1704
21.649670 45.590 -53.6807
21.806553 47.057 -62.2748
21.964573 48.236 -70.0889
22.123737 48.871 -77.1379
22.284056 49.144 -84.2454
22.445536 49.258 -89.0089
22.608185 49.268 -92.5226
22.772013 49.360 -93.8918
22.937029 49.586 -92.8975
23.103241 50.001 -91.3744
23.270657 50.628 -89.4492
23.439285 51.278 -88.4615
23.609137 51.821 -89.1533
23.780218 52.137 -90.9659
23.952539 52.077 -94.4849
24.126110 51.567 -99.6118
24.300938 50.423 -106.6154
24.477032 48.869 -118.5598
24.654402 47.545 -141.2288
24.833057 47.001 159.8203
25.013008 48.261 111.7067
25.194263 50.626 91.0982
25.376831 52.506 79.9598
25.560722 53.780 71.0342
25.745945 54.462 63.8193
25.932510 54.560 56.3819
26.120428 54.110 49.4244
26.309708 53.090 41.2227
26.500359 51.428 32.1240
26.692390 49.242 18.5016
26.885815 46.862 -4.3321
27.080641 44.897 -51.9511
27.276878 44.472 -94.7150
27.474539 44.772 -114.2341
27.673630 44.664 -120.0270
27.874165 44.525 -115.4257
28.076153 44.797 -92.7507
28.279604 46.151 -63.1033
28.484529 48.837 -46.2732
28.690941 51.251 -42.7026
28.898848 53.129 -44.0513
29.108261 54.371 -48.4548
29.319191 55.027 -54.1929
29.531651 55.138 -61.5551
29.745649 54.692 -69.4352
29.961199 53.659 -79.2084
30.178310 51.927 -90.0848
30.396996 49.780 -106.3734
30.617264 47.896 -145.0784
30.839128 47.820 119.5564
31.062601 49.782 86.9939
31.287693 51.642 73.2090
31.514416 52.950 63.4806
31.742783 53.528 56.0007
31.972803 53.465 51.2703
32.204491 52.829 49.0933
32.437859 51.757 51.6490
32.672916 50.619 59.0791
32.909679 49.749 71.5508
33.148155 49.347 81.8203
33.388359 48.981 87.5126
33.630306 48.163 86.5852
33.874004 46.711 79.2736
34.119469 46.154 40.5094
34.366711 47.897 -76.0653
34.615746 50.550 -94.5209
34.866585 52.916 -105.1113
35.119244 54.370 -115.2639
35.373734 55.073 -125.4606
35.630066 55.139 -136.0050
35.888256 54.662 -147.5603
36.148315 53.743 -159.2367
36.410259 52.489 -170.0293
36.674103 51.025 -178.6133
36.939857 49.546 178.0122
37.207539 48.460 -179.2867
37.477161 47.991 -172.6530
37.748737 47.998 -166.0024
38.022282 47.951 -162.3733
38.297806 47.357 -161.3237
38.575329 45.978 -162.5065
38.854862 43.897 -168.0502
39.136421 41.954 162.3799
39.420021 42.760 74.1970
39.705673 45.237 56.4510
39.993397 47.647 53.2910
40.283207 49.190 52.7662
40.575115 49.862 52.6470
40.869141 49.636 52.9965
41.165295 48.460 54.9338
41.463596 46.361 61.4260
41.764057 43.653 81.6364
42.066696 41.348 121.8820
42.371529 39.999 148.0729
42.678570 39.209 162.8065
42.987835 40.075 -79.2716
43.299343 42.582 -49.3395
43.613110 44.888 -52.3948
43.929150 45.852 -60.7941
44.247478 45.483 -73.0945
44.568115 44.222 -93.7194
44.891075 43.673 -173.0120
45.216373 44.717 108.6772
45.544029 46.344 84.2716
45.874062 47.304 64.8755
46.206486 47.370 45.4550
46.541317 46.600 25.3291
46.878574 45.036 4.9546
47.218277 42.872 -15.9034
47.560440 41.525 -86.2742
47.905083 42.788 148.8927
48.252224 44.942 134.5551
48.601879 46.477 124.7954
48.954067 47.080 117.5562
49.308807 46.799 112.4563
49.666119 45.724 109.5519
50.026020 43.984 109.0363
50.388531 41.847 110.3247
50.753666 39.888 109.9990
51.121449 38.891 102.9528
51.491894 39.015 90.6420
51.865025 39.469 80.3256
52.240860 39.458 76.4983
52.619419 38.891 84.3450
53.000721 38.821 117.6593
53.384785 40.066 156.8789
53.771633 41.489 171.4216
54.161285 41.908 175.7068
54.553761 40.939 177.3503
54.949081 38.741 179.0630
55.347263 36.785 127.0133
55.748333 37.598 28.7523
56.152309 40.180 51.5347
56.559212 42.673 72.7869
56.969063 44.341 86.3601
57.381886 44.865 97.3441
57.797699 44.466 115.6570
58.216526 44.268 160.2394
58.638386 45.102 -155.6361
59.063305 45.946 -137.8436
59.491302 45.741 -128.4189
59.922401 44.221 -119.5228
60.356625 41.625 -106.5167
60.793995 39.277 10.2103
61.234531 39.159 89.0228
61.678261 40.380 114.6239
62.125206 41.541 146.7775
62.575390 42.506 -179.7766
63.028835 43.047 -153.9587
63.485569 42.874 -129.7107
63.945610 42.306 -92.3217
64.408989 42.032 -47.3895
64.875725 41.728 -20.7161
65.345840 40.604 -0.0194
65.819366 38.835 38.4911
66.296318 37.633 109.5237
66.776726 37.668 161.9821
67.260620 38.526 -165.8616
67.748016 39.251 -157.3667
68.238945 39.169 -168.6697
68.733429 38.421 162.4648
69.231499 37.427 137.9900
69.733177 36.785 150.3606
70.238495 37.561 -147.2983
70.747475 38.716 -128.7290
71.260139 38.710 -118.6268
71.776520 37.911 -84.5522
72.296638 37.773 -32.9086
72.820526 38.136 -29.2620
73.348213 38.508 -61.2468
73.879723 39.480 -104.8888
74.415085 40.689 -116.0817
74.954330 41.405 -112.5696
75.497482 41.300 -109.8881
76.044571 40.542 -120.9433
76.595619 40.365 111.1389
77.150665 40.819 81.3735
77.709732 40.226 69.6515
78.272850 38.343 49.5984
78.840050 37.008 -64.4497
79.411354 37.898 -50.6333
79.986801 39.684 -33.3005
80.566422 40.760 -29.0061
81.150238 41.680 31.8292
81.738289 43.297 105.5405
82.330597 44.387 93.2681
82.927200 44.169 68.0315
83.528122 43.238 3.7306
84.133400 42.491 -86.4186
84.743065 41.798 -133.9664
85.357147 40.647 -171.0000
85.975677 39.247 -179.5680
86.598694 38.972 -128.9031
87.226227 39.608 -117.5895
87.858307 39.757 -123.7756
88.494965 40.241 51.8866
89.136238 41.279 50.4180
89.782158 41.753 55.6609
90.432755 41.350 62.2017
91.088066 40.124 58.7480
91.748131 38.939 0.1108
92.412979 39.328 -133.5875
93.082642 40.899 -174.1920
93.757156 42.505 155.8931
94.436562 43.533 142.4358
95.120888 43.856 137.4640
95.810173 43.644 130.0138
96.504456 42.963 109.2737
97.203766 41.705 71.4684
97.908142 39.759 34.2703
98.617622 37.667 29.8550
99.332245 37.487 61.8623
100.052048 39.575 88.3187
100.777069 42.129 111.3248
101.507339 43.625 113.5704
102.242905 43.285 109.4481
102.983795 41.468 132.0459
103.730057 39.441 -125.5177
104.481728 37.771 -116.4944
105.238846 37.110 -107.0040
106.001450 38.337 -108.0309
106.769577 39.662 -118.3901
107.543274 39.692 -132.5627
108.322578 38.800 -166.6128
109.107529 38.842 163.3246
109.898170 40.457 -160.8729
110.694534 42.022 -128.7731
111.496674 42.491 -107.0205
112.304626 42.648 -21.4292
113.118431 43.958 27.5032
113.938133 46.466 -41.6268
114.763779 49.012 -82.7791
115.595406 50.237 -83.7061
116.433060 49.941 -71.4137
117.276779 49.290 47.9301
118.126617 49.028 62.1321
118.982613 48.998 -28.1218
119.844810 49.112 -85.9457
120.713257 48.237 -93.2197
121.587997 46.253 -128.0555
122.469070 44.690 133.6290
123.356529 43.775 130.2560
124.250420 42.156 115.6709
125.150787 40.435 78.1312
126.057678 40.422 90.6337
126.971146 41.063 93.8186
127.891228 40.758 71.6221
128.817978 39.685 7.7085
129.751450 38.372 -14.2986
130.691681 37.372 12.5123
131.638733 36.828 37.1544
132.592636 36.667 89.8977
133.553452 36.816 79.6948
134.521240 36.575 28.5369
135.496033 35.881 15.7540
136.477890 35.595 93.0229
137.466858 36.228 133.0463
138.462997 37.304 162.7241
139.466354 37.973 161.5486
140.476990 38.318 156.4728
141.494949 39.550 113.8160
142.520279 41.027 -15.4146
143.553040 41.506 -63.5292
144.593277 41.011 -125.9570
145.641052 40.663 -120.3180
146.696426 41.710 -48.0172
147.759445 43.513 17.2994
148.830170 44.693 41.9178
149.908661 44.135 37.9351
150.994965 42.004 26.8776
152.089142 40.425 173.3402
153.191238 41.220 94.0713
154.301331 42.724 107.6427
155.419464 43.753 156.2101
156.545700 43.795 -174.2888
157.680099 42.541 -156.2910
158.822708 40.949 -130.2577
159.973602 41.070 -73.8291
161.132843 42.181 -112.7981
162.300476 42.553 -115.6777
163.476578 42.266 -12.8317
164.661194 41.665 2.4630
165.854401 40.841 25.9357
167.056244 40.136 77.5779
168.266800 39.851 148.0596
169.486130 39.857 -108.6951
170.714294 40.048 -75.6653
171.951355 40.905 -49.0827
173.197388 42.255 -39.1447
174.452454 43.274 -29.0311
175.716614 44.420 12.3372
176.989929 46.377 15.8218
178.272476 48.323 4.0638
179.564316 49.410 1.2988
180.865509 49.246 -3.2195
182.176132 48.036 -3.7056
183.496262 46.911 6.4568
184.825958 46.196 -4.3166
186.165283 45.798 -13.3874
187.514313 46.394 2.7681
188.873123 47.140 16.3945
190.241776 46.790 6.6750
191.620346 45.346 -16.5621
193.008911 44.932 -24.5194
194.407532 46.722 -26.3218
195.816284 48.487 -23.4888
197.235245 49.314 -32.2881
198.664490 49.666 -59.0280
200.104095 50.496 -78.5277
201.554138 51.237 -82.4855
203.014679 51.093 -63.7234
204.485809 49.892 -49.8990
205.967590 47.642 -50.0536
207.460114 44.985 -41.3983
208.963455 42.535 -26.1258
210.477692 41.308 -16.9172
212.002899 42.324 -119.6013
213.539154 43.826 -111.2111
215.086548 44.308 -83.0855
216.645157 43.973 -50.5268
218.215057 43.537 -56.4105
219.796341 43.637 -65.3869
221.389069 44.202 -58.9783
222.993347 44.535 -59.3961
224.609253 43.899 -67.7032
226.236862 42.730 -55.2544
227.876266 42.001 -35.5667
229.527557 41.600 -23.2131
231.190811 42.301 -8.4533
232.866119 45.081 -45.9849
234.553558 47.924 -117.1554
236.253235 49.574 -104.1551
237.965225 49.947 -68.0116
239.689621 49.423 -29.3063
241.426514 49.003 -16.2413
243.175995 49.037 -66.2872
244.938141 48.873 -93.7614
246.713058 48.298 -100.3724
248.500839 48.436 -101.6597
250.301575 49.325 -119.4395
252.115356 49.930 -124.0620
253.942291 49.718 -131.4022
255.782455 48.761 -153.7112
257.635956 48.220 -158.1471
259.502899 48.500 -134.3186
261.383362 48.599 -140.5299
263.277466 48.663 -125.4543
265.185272 49.378 -60.2528
267.106903 50.930 -124.3199
269.042480 52.046 -122.0471
270.992065 51.680 -102.1785
272.955780 50.194 -107.1172
274.933716 49.210 -97.6096
276.925995 49.887 -70.6167
278.932709 50.786 -78.0020
280.953979 51.056 -92.5890
282.989899 50.939 -80.8339
285.040558 50.955 -123.0048
287.106079 51.349 -129.3446
289.186554 52.249 -140.7843
291.282104 53.188 -148.3303
293.392853 52.939 -145.9219
295.518890 51.428 -133.3611
297.660339 49.714 -124.0863
299.817322 48.625 -112.1399
301.989929 48.787 -101.7955
304.178284 50.503 -107.9038
306.382477 52.374 -124.7617
308.602661 53.178 -149.6244
310.838928 52.895 -166.8037
313.091400 51.784 -133.3455
315.360199 50.385 -119.3201
317.645416 49.533 -134.4641
319.947205 49.070 -133.9141
322.265686 48.399 -125.2253
324.600952 48.411 -136.4180
326.953156 49.955 -156.9753
329.322388 51.608 -148.7146
331.708801 52.825 -149.3010
334.112488 53.986 161.6350
336.533600 54.735 139.1625
338.972260 55.343 -157.7598
341.428589 56.539 -157.6763
343.902710 57.689 -160.5619
346.394775 57.691 -160.6694
348.904907 56.926 -172.6671
351.433228 57.086 137.7026
353.979858 58.283 112.1941
356.544952 59.769 -170.4772
359.128632 60.636 -158.2705
361.731018 60.165 -179.1902
364.352264 58.689 157.5376
366.992523 57.052 160.4741
369.651917 55.634 -158.4568
372.330566 54.260 -138.9561
375.028625 53.038 -133.6853
377.746246 52.961 -102.6933
380.483551 54.369 -160.8840
383.240692 55.577 143.8876
386.017822 55.372 144.3397
388.815063 54.573 177.3254
391.632568 54.589 -178.7102
394.470490 54.702 173.7035
397.328979 53.778 165.6873
400.208191 52.089 155.7327
403.108276 50.845 171.1526
406.029358 51.222 177.0015
408.971619 52.955 -160.6965
411.935181 54.566 -144.8650
414.920227 55.171 -153.3638
417.926910 55.053 166.0488
420.955383 55.637 137.7188
424.005798 57.322 141.0469
427.078308 58.959 118.5032
430.173096 60.141 95.3108
433.290314 60.856 100.9315
436.430115 60.971 102.2539
439.592682 60.955 -149.1272
442.778137 60.985 -133.5891
445.986694 60.303 -135.6619
449.218506 58.882 -172.2380
452.473724 57.730 -174.9543
455.752533 57.421 -138.6022
459.055115 57.755 -144.9846
462.381622 58.227 -172.6858
465.732239 58.594 -175.8616
469.107117 58.289 164.9800
472.506470 57.068 157.0363
475.930450 55.564 151.3611
479.379242 54.936 165.0176
482.853027 55.580 -175.1082
486.351990 56.703 -171.3228
489.876282 57.726 -174.6448
493.426117 58.392 -119.6415
497.001678 58.415 -145.3657
500.603149 58.154 155.9404
504.230713 58.298 146.2642
507.884583 58.623 157.3167
511.564911 59.354 -143.9722
515.271912 60.402 -147.1506
519.005798 60.649 -171.0638
522.766724 60.150 161.9048
526.554932 59.682 154.9321
530.370544 59.663 137.6022
534.213806 60.085 121.7222
538.084961 60.025 123.1138
541.984131 58.996 126.7672
545.911560 57.422 134.8906
549.867432 55.842 153.9277
553.851990 54.961 164.2927
557.865417 54.824 153.6841
561.907959 55.165 138.2528
565.979797 55.453 139.6575
570.081116 55.199 141.5601
574.212158 55.161 138.5090
578.373108 56.013 124.0945
582.564209 57.193 110.1730
586.785706 58.143 103.4540
591.037781 58.653 116.3274
595.320679 59.032 150.0027
599.634644 59.283 -174.9330
603.979858 59.535 -176.7576
608.356567 60.491 168.9838
612.764954 61.501 151.6500
617.205322 61.865 132.9985
621.677856 61.331 119.0854
626.182800 60.178 105.8035
630.720398 59.164 90.7300
635.290833 58.661 87.0032
639.894409 58.378 97.5923
644.531372 58.129 98.4634
649.201904 57.937 79.9557
653.906311 57.768 75.0560
658.644775 57.392 86.4939
663.417603 56.511 88.5470
668.224976 55.643 81.4131
673.067200 55.954 91.1833
677.944519 57.017 108.2590
682.857178 57.711 125.8220
687.805420 58.084 152.3250
692.789551 58.648 118.3926
697.809814 59.228 86.4233
702.866455 59.501 94.7627
707.959717 59.869 108.0535
713.089905 60.098 116.3132
718.257263 59.519 98.7435
723.462036 58.416 77.0015
728.704529 57.681 79.7025
733.985046 58.039 86.1122
739.303833 58.589 88.1632
744.661133 58.479 87.1350
750.057251 57.983 87.3606
755.492493 57.570 89.0696
760.967102 57.562 104.5071
766.481384 57.939 109.4478
772.035645 58.760 116.0774
777.630127 59.956 113.8173
783.265137 60.844 105.0941
788.940979 60.827 91.9734
794.657959 59.961 76.3445
800.416382 58.830 65.8308
806.216553 57.737 60.1254
812.058716 56.908 48.5881
817.943237 56.409 46.4998
823.870361 56.746 44.9755
829.840454 57.536 45.6569
835.853821 57.898 48.8496
841.910767 58.146 46.4490
848.011597 58.335 48.5135
854.156616 57.728 53.6569
860.346191 56.308 73.9556
866.580627 55.519 112.4290
872.860229 55.901 130.8342
879.185364 56.172 130.2532
885.556274 56.389 81.6639
891.973389 56.724 57.7869
898.437012 56.289 52.0443
904.947449 55.124 76.2419
911.505066 54.152 80.7128
918.110229 53.609 68.9290
924.763245 53.627 23.1515
931.464478 55.131 -176.6740
938.214233 57.443 168.8358
945.012939 59.395 146.4393
951.860901 60.300 124.5437
958.758484 60.063 113.0071
965.706055 58.995 110.7557
972.703979 57.525 115.9583
979.752563 56.557 124.7025
986.852234 56.990 134.7639
994.003357 57.892 137.7642
1001.206299 58.352 139.5438
1008.461426 58.625 135.0667
1015.769165 58.833 121.6428
1023.129822 58.457 109.0769
1030.543823 57.536 107.7692
1038.011597 57.298 119.2321
1045.533447 57.736 125.6139
1053.109863 58.167 123.3450
1060.741089 58.652 117.2766
1068.427612 59.211 119.0488
1076.169922 59.579 115.2725
1083.968262 59.490 102.1519
1091.823120 59.206 81.3987
1099.734863 59.322 80.1145
1107.703979 59.267 90.5977
1115.730835 59.230 96.8208
1123.815918 59.476 99.7347
1131.959595 59.453 99.7258
1140.162231 59.521 96.7407
1148.424316 60.142 93.8416
1156.746216 60.678 93.4027
1165.128418 60.814 90.5015
1173.571411 60.818 81.5449
1182.075562 60.422 69.4636
1190.641357 59.639 66.9681
1199.269287 59.511 69.2412
1207.959717 59.785 72.2747
1216.713135 59.906 78.9856
1225.529907 60.296 78.4071
1234.410645 60.720 72.2297
1243.355713 60.831 66.3491
1252.365601 60.560 59.1213
1261.440796 60.213 65.4670
1270.581665 60.671 65.4540
1279.788818 61.547 51.5051
1289.062744 61.470 39.6553
1298.403809 60.659 50.2100
1307.812622 60.327 53.3601
1317.289551 60.027 43.7380
1326.835205 59.389 49.7383
1336.449951 59.191 61.6890
1346.134399 59.775 66.6736
1355.889038 60.454 67.3950
1365.714355 60.330 66.2305
1375.610840 59.748 58.0028
1385.579102 59.759 58.9172
1395.619629 60.419 86.4917
1405.732910 61.310 81.9082
1415.919434 62.224 56.7534
1426.179810 62.677 48.0563
1436.514526 62.535 56.7285
1446.924072 62.313 62.2788
1457.409058 62.007 61.6450
1467.970093 61.639 61.4895
1478.607666 61.615 64.9557
1489.322266 62.327 47.9155
1500.114502 63.310 23.0907
1510.984985 63.661 62.3401
1521.934204 63.561 82.6981
1532.962769 63.884 84.3127
1544.071289 64.047 90.0872
1555.260254 63.527 85.0686
1566.530273 63.381 74.7617
1577.881958 64.263 75.3757
1589.315918 65.229 67.9839
1600.832764 65.481 39.3967
1612.433105 64.744 40.1046
1624.117432 63.612 62.5793
1635.886475 63.187 58.0833
1647.740723 63.488 44.5944
1659.680908 63.809 33.8195
1671.707642 64.135 25.6924
1683.821533 64.454 34.9845
1696.023193 64.277 30.6945
1708.313232 63.509 24.5543
1720.692383 63.028 35.3411
1733.161255 63.521 10.1133
1745.720459 64.153 -19.4791
1758.370728 64.696 -8.4169
1771.112549 65.188 21.9619
1783.946777 65.133 19.5479
1796.874023 64.819 -31.7094
1809.894897 64.605 -53.5532
1823.010132 64.186 -18.0123
1836.220459 64.317 53.5176
1849.526489 64.767 59.3022
1862.928955 64.714 51.9305
1876.428467 64.213 51.9592
1890.025879 63.704 53.8121
1903.721802 63.521 40.4260
1917.516968 63.722 23.0254
1931.412109 64.452 30.6461
1945.407959 66.160 26.2567
1959.505127 69.275 25.7399
1973.704468 73.464 25.9391
1988.006714 76.912 -88.2147
2002.412598 77.961 -105.8757
2016.922852 76.077 -80.9417
2031.538330 72.630 16.0265
2046.259644 69.614 22.4812
2061.087646 67.311 88.5518
2076.023193 65.625 130.1433
2091.066895 65.451 72.1920
2106.219727 65.720 25.0631
2121.482178 65.467 -7.2588
2136.855225 65.145 172.7158
2152.339844 65.508 70.6726
2167.936523 66.420 28.7054
2183.646240 66.547 -22.5262
2199.469727 65.502 1.6024
2215.407959 64.785 12.1611
2231.461670 64.919 -2.6858
2247.631836 64.893 65.6444
2263.919189 64.900 87.1501
2280.324463 65.381 76.1089
2296.848633 65.448 96.4026
2313.492432 64.743 97.4729
2330.256836 64.010 80.7485
2347.142822 63.943 50.4620
2364.151123 63.987 26.3248
2381.282715 63.524 21.1573
2398.538574 62.770 32.7368
2415.919434 62.543 46.8971
2433.426270 62.690 49.5809
2451.059814 62.643 64.0020
2468.821289 62.743 77.1975
2486.711426 62.833 59.8982
2504.731201 63.035 52.4833
2522.881592 63.618 52.7919
2541.163330 64.363 45.6532
2559.577637 65.196 28.3794
2578.125488 65.795 1.3352
2596.807617 66.071 -5.2900
2615.625244 66.950 8.9152
2634.579102 68.319 8.5286
2653.670410 69.087 16.5598
2672.899902 69.335 11.3176
2692.268799 69.125 11.6118
2711.778076 68.575 30.3413
2731.428711 68.869 18.8899
2751.221680 69.766 3.2625
2771.158203 70.139 27.4120
2791.239258 70.057 60.3286
2811.465820 70.010 21.4302
2831.838867 70.068 -15.0378
2852.359619 70.147 -6.0243
2873.029053 69.460 34.5050
2893.848145 68.295 43.3204
2914.818115 67.251 34.4318
2935.940186 66.560 -12.0588
2957.215332 66.530 -9.7474
2978.644531 66.757 8.1182
3000.229004 66.895 25.1569
3021.969971 66.337 51.8772
3043.868408 65.866 64.3428
3065.925537 65.985 32.1544
3088.142578 65.951 29.4828
3110.520508 66.110 36.1260
3133.060547 66.325 26.3606
3155.763916 65.792 32.0404
3178.631836 65.001 20.3519
3201.665527 64.494 4.6436
3224.866211 64.110 5.1882
3248.234863 63.411 3.2341
3271.772949 62.772 5.6226
3295.481445 62.954 24.2075
3319.361816 63.446 41.1833
3343.415283 63.583 31.2709
3367.643066 63.328 26.3986
3392.046387 63.098 24.2046
3416.626465 63.080 15.5903
3441.384766 63.289 10.5693
3466.322510 63.076 11.2054
3491.440918 62.612 61.7246
3516.741455 62.778 38.5935
3542.225098 63.309 23.9806
3567.893555 63.344 22.1082
3593.748047 63.399 36.2874
3619.789795 64.015 27.9819
3646.020264 64.871 12.8549
3672.440918 65.843 -2.3492
3699.052979 66.889 -19.3459
3725.857910 67.946 -33.9625
3752.856934 68.594 -25.1656
3780.051758 69.243 -21.2161
3807.443604 70.289 -30.6057
3835.033936 71.794 -69.6077
3862.824219 73.627 -47.8593
3890.815918 74.840 -15.5952
3919.010254 75.348 -42.8927
3947.408936 76.070 -142.6322
3976.013428 76.914 -123.1621
4004.825195 77.266 -86.6849
4033.845703 76.819 0.6375
4063.076660 76.363 7.3182
4092.519287 76.386 18.1594
4122.175293 76.564 1.2748
4152.046387 76.715 -24.6149
4182.133789 76.802 -16.9225
4212.439453 76.953 29.3879
4242.964355 76.917 -22.9509
4273.710449 77.009 -86.4791
4304.679688 76.745 -102.7944
4335.873047 75.933 -108.7040
4367.292480 75.096 -3.4126
4398.939453 74.394 -8.5393
4430.815918 73.477 -11.0334
4462.923340 72.618 45.0190
4495.263672 71.769 63.7158
4527.838379 70.872 68.9854
4560.648926 69.862 76.6128
4593.697266 68.732 71.3790
4626.984863 67.443 55.6985
4660.513672 66.419 23.0127
4694.285645 66.162 -12.5458
4728.302246 66.646 -23.8304
4762.565430 67.137 -11.3870
4797.077148 67.374 -22.5491
4831.838867 67.436 -24.3223
4866.852539 67.230 -18.0038
4902.119629 66.963 -45.6326
4937.642578 66.785 -24.8438
4973.422852 66.905 -31.4285
5009.462402 67.366 -108.3839
5045.763184 67.903 -115.9795
5082.326660 68.411 -40.5414
5119.155273 68.831 -43.3070
5156.250977 69.279 -68.1674
5193.615234 69.756 -120.7771
5231.250488 70.266 -123.7723
5269.158203 70.377 -79.8959
5307.340820 69.977 -65.6382
5345.799805 69.276 -136.9822
5384.537598 68.581 178.5743
5423.556152 68.255 85.2817
5462.857422 68.100 98.1844
5502.443359 68.043 164.2974
5542.316406 68.447 -147.8442
5582.478516 69.237 39.7416
5622.931641 69.720 2.3611
5663.677734 69.496 10.6487
5704.719238 68.779 37.6241
5746.058105 67.858 64.1305
5787.696289 66.609 57.7484
5829.636230 65.606 39.0854
5871.880371 65.249 19.5621
5914.430664 65.357 3.4351
5957.289062 65.365 3.4835
6000.458008 65.082 5.5216
6043.939941 64.519 -14.3477
6087.736816 63.956 -30.1992
6131.851074 64.001 -31.1239
6176.285156 64.657 -26.3662
6221.041016 65.445 -21.0786
6266.121094 66.317 3.7124
6311.527832 66.814 65.5219
6357.263672 66.944 101.2671
6403.331055 66.777 94.7908
6449.732422 66.278 84.1633
6496.469727 65.783 73.3402
6543.545898 65.457 50.1230
6590.962891 65.125 41.0984
6638.723633 64.526 41.7029
6686.830566 63.909 38.1443
6735.286133 63.760 23.4357
6784.092773 64.054 17.1364
6833.252930 64.743 15.9736
6882.769531 65.851 33.4377
6932.645020 67.228 29.5940
6982.881836 68.308 38.5796
7033.482910 69.026 57.6646
7084.450195 69.304 58.0143
7135.787109 69.104 33.0188
7187.496094 68.718 14.9316
7239.579590 68.390 16.4214
7292.040527 68.027 0.1715
7344.881836 67.735 -2.3892
7398.105957 67.554 -1.7603
7451.715820 67.440 -6.8330
7505.713867 67.219 -13.0870
7560.103516 66.741 -17.1033
7614.887207 65.987 -11.9597
7670.067871 64.932 -3.6173
7725.648438 64.299 -6.9832
7781.631836 64.138 -3.5339
7838.020508 63.648 -0.5708
7894.817871 62.859 -0.1896
7952.026855 62.321 0.6952
8009.650391 62.407 -1.4156
8067.691406 62.437 -8.8511
8126.153320 62.297 -21.0259
8185.038574 62.378 -28.7885
8244.350586 62.681 -27.5933
8304.092773 62.904 -27.4445
8364.267578 63.161 -35.9550
8424.878906 63.625 -52.3729
8485.928711 64.028 -66.6243
8547.420898 64.055 -83.6422
8609.359375 63.735 -101.7643
8671.746094 63.452 -61.2317
8734.584961 63.607 -5.1464
8797.878906 64.040 -4.6858
8861.631836 64.511 -9.5668
8925.846680 64.762 -18.0297
8990.527344 64.714 -26.3052
9055.676758 64.446 -23.8624
9121.297852 64.022 6.0503
9187.394531 63.721 12.0511
9253.969727 63.773 -15.4417
9321.027344 63.890 -24.2561
9388.571289 63.869 -21.4374
9456.604492 64.186 -18.8606
9525.130859 64.826 -7.0265
9594.154297 65.365 7.9995
9663.677734 65.767 19.8162
9733.705078 66.272 16.8945
9804.239258 66.834 13.0189
9875.285156 66.984 -3.1538
9946.845703 66.983 -23.7344
10018.924805 67.002 -11.1498
10091.526367 66.958 -52.0801
10164.653320 66.508 -120.2855
10238.310547 65.539 -32.0396
10312.501953 64.478 -33.2557
10387.230469 63.627 -59.2855
10462.500977 62.987 -91.0389
10538.316406 62.516 142.0991
10614.681641 62.140 63.8726
10691.599609 62.003 42.4969
10769.075195 62.476 16.3453
10847.112305 63.556 -0.4034
10925.714844 64.492 8.8689
11004.886719 64.944 13.8099
11084.632812 65.415 0.5470
11164.957031 65.761 8.0498
11245.863281 65.681 5.6509
11327.355469 65.340 -10.6289
11409.438477 64.921 -39.7400
11492.116211 64.377 -49.1263
11575.392578 64.213 -50.7864
11659.272461 64.670 -39.3490
11743.760742 65.001 -64.2936
11828.861328 64.773 -43.6495
11914.578125 64.099 18.8475
12000.916016 63.374 64.7610
12087.879883 62.727 33.8102
12175.473633 62.142 -7.8408
12263.702148 61.857 -42.6190
12352.570312 62.174 -80.8232
12442.082031 63.003 -106.5630
12532.242188 63.576 125.1162
12623.055664 63.438 73.1487
12714.527344 62.441 40.5913
12806.662109 60.830 -3.6099
12899.464844 59.216 -26.1741
12992.939453 57.975 -59.5142
13087.091797 57.115 -79.5986
13181.925781 56.786 -84.0645
13277.447266 57.066 -75.8484
13373.661133 57.733 34.0107
13470.572266 58.566 -21.1804
13568.185547 59.167 -68.5701
13666.505859 59.099 -85.3049
13765.539062 58.510 -63.2053
13865.290039 58.100 -54.5210
13965.763672 57.964 -76.6125
14066.965820 57.938 -68.0750
14168.900391 57.908 -54.3643
14271.574219 57.981 -63.2600
14374.992188 58.451 -80.7710
14479.159180 58.884 -110.3552
14584.081055 58.881 -148.8352
14689.763672 58.770 -160.3792
14796.211914 58.856 -138.7009
14903.431641 58.969 -178.7402
15011.427734 58.888 150.7202
15120.207031 58.637 146.7903
15229.774414 58.294 126.2744
15340.135742 58.229 131.1575
15451.296875 58.532 131.9165
15563.263672 58.981 116.4045
15676.041016 59.318 87.2825
15789.635742 59.411 54.7839
15904.053711 59.511 32.6765
16019.300781 59.670 69.4380
16135.382812 59.585 75.0017
16252.306641 59.171 71.7002
16370.077148 58.529 -18.5039
16488.701172 57.774 -42.8022
16608.185547 57.115 170.6514
16728.535156 56.697 143.7966
16849.757812 56.332 110.9307
16971.857422 55.935 95.9294
17094.841797 55.699 152.6299
17218.718750 55.708 155.3318
17343.492188 55.956 42.1396
17469.169922 56.196 29.2305
17595.757812 56.159 29.2312
17723.263672 56.099 100.7554
17851.693359 56.167 156.9182
17981.054688 56.341 174.9373
18111.353516 56.559 -164.1838
18242.595703 56.606 173.3577
18374.789062 56.493 99.3342
18507.939453 56.396 63.4675
18642.054688 56.346 16.8159
18777.142578 56.398 -30.4941
18913.208984 57.094 -156.6895
19050.261719 58.358 174.8418
19188.308594 58.830 37.1904
19327.355469 58.431 42.9146
19467.410156 58.524 -16.5000
19608.478516 59.100 23.0957
19750.570312 60.556 35.8596
19893.691406 62.561 -1.9912
20037.849609 0.000 -9.1135
